File: artifacts/EDA_prepared_data/preprocessed_data.csv
Compressive strength of cementfce(MPa),Tensile strength of cementfct(MPa),Curing age (day),Dmax of Crushed stone(mm),Stone powder content in Sand (%),Fineness modulus of sand ,W/B,Water to cement ratio mw/mc,Water(kg/m3),Sand ratio(%),"Compressive strengthfcu,t(MPa)","Splitting tensile strengthfst,t(MPa)"
46.8,8.0,3.0,31.5,5.0,3.34,0.56,0.56,180.0,44.0,32.5,1.18
46.8,8.0,3.0,31.5,9.0,3.27,0.56,0.56,180.0,44.0,28.7,1.13
46.8,8.0,3.0,31.5,13.0,2.77,0.56,0.56,180.0,44.0,28.5,1.56
46.8,8.0,7.0,31.5,5.0,3.34,0.56,0.56,180.0,44.0,33.5,1.39
46.8,8.0,7.0,31.5,9.0,3.27,0.56,0.56,180.0,44.0,34.9,1.38
46.8,8.0,7.0,31.5,13.0,2.77,0.56,0.56,180.0,44.0,34.7,1.42
46.8,8.0,14.0,31.5,5.0,3.34,0.56,0.56,180.0,44.0,39.7,2.62
46.8,8.0,14.0,31.5,9.0,3.27,0.56,0.56,180.0,44.0,38.9,3.05
46.8,8.0,14.0,31.5,13.0,2.77,0.56,0.56,180.0,44.0,37.0,2.31
46.8,8.0,28.0,31.5,5.0,3.34,0.56,0.56,180.0,44.0,41.2,3.02
46.8,8.0,28.0,31.5,9.0,3.27,0.56,0.56,180.0,44.0,41.3,3.75
46.8,8.0,28.0,31.5,13.0,2.77,0.56,0.56,180.0,44.0,40.5,3.01
46.8,8.0,42.0,31.5,5.0,3.34,0.56,0.56,180.0,44.0,42.0,3.31
46.8,8.0,42.0,31.5,9.0,3.27,0.56,0.56,180.0,44.0,41.8,3.82
46.8,8.0,42.0,31.5,13.0,2.77,0.56,0.56,180.0,44.0,42.3,3.43
46.8,8.0,56.0,31.5,5.0,3.34,0.56,0.56,180.0,44.0,43.8,3.73
46.8,8.0,56.0,31.5,9.0,3.27,0.56,0.56,180.0,44.0,42.4,3.99
46.8,8.0,56.0,31.5,13.0,2.77,0.56,0.56,180.0,44.0,45.0,3.68
46.8,8.0,84.0,31.5,5.0,3.34,0.56,0.56,180.0,44.0,47.4,4.42
46.8,8.0,84.0,31.5,9.0,3.27,0.56,0.56,180.0,44.0,48.8,4.21
46.8,8.0,84.0,31.5,13.0,2.77,0.56,0.56,180.0,44.0,48.0,4.48
46.8,8.0,118.0,31.5,5.0,3.34,0.56,0.56,180.0,44.0,48.9,4.37
46.8,8.0,118.0,31.5,9.0,3.27,0.56,0.56,180.0,44.0,49.3,4.03
46.8,8.0,118.0,31.5,13.0,2.77,0.56,0.56,180.0,44.0,48.7,4.41
46.8,8.0,178.0,31.5,5.0,3.34,0.56,0.56,180.0,44.0,49.7,4.68
46.8,8.0,178.0,31.5,9.0,3.27,0.56,0.56,180.0,44.0,51.9,4.22
46.8,8.0,178.0,31.5,13.0,2.77,0.56,0.56,180.0,44.0,49.9,4.42
46.8,8.0,238.0,31.5,5.0,3.34,0.56,0.56,180.0,44.0,51.1,4.22
46.8,8.0,238.0,31.5,9.0,3.27,0.56,0.56,180.0,44.0,55.4,3.92
46.8,8.0,238.0,31.5,13.0,2.77,0.56,0.56,180.0,44.0,54.5,4.12
46.8,8.0,298.0,31.5,5.0,3.34,0.56,0.56,180.0,44.0,51.2,4.36
46.8,8.0,298.0,31.5,9.0,3.27,0.56,0.56,180.0,44.0,56.2,4.05
46.8,8.0,298.0,31.5,13.0,2.77,0.56,0.56,180.0,44.0,54.8,4.23
46.8,8.0,358.0,31.5,5.0,3.34,0.56,0.56,180.0,44.0,51.6,4.41
46.8,8.0,358.0,31.5,9.0,3.27,0.56,0.56,180.0,44.0,56.4,4.22
46.8,8.0,358.0,31.5,13.0,2.77,0.56,0.56,180.0,44.0,55.1,4.32
46.8,8.0,3.0,31.5,5.0,3.34,0.45,0.45,180.0,36.0,38.4,2.67
46.8,8.0,3.0,31.5,9.0,3.27,0.45,0.45,180.0,36.0,38.0,2.61
46.8,8.0,3.0,31.5,13.0,2.77,0.45,0.45,180.0,36.0,38.1,2.71
46.8,8.0,7.0,31.5,5.0,3.34,0.45,0.45,180.0,36.0,42.2,2.81
46.8,8.0,7.0,31.5,9.0,3.27,0.45,0.45,180.0,36.0,42.3,3.02
46.8,8.0,7.0,31.5,13.0,2.77,0.45,0.45,180.0,36.0,41.7,2.95
46.8,8.0,14.0,31.5,5.0,3.34,0.45,0.45,180.0,36.0,44.9,3.06
46.8,8.0,14.0,31.5,9.0,3.27,0.45,0.45,180.0,36.0,44.8,3.05
46.8,8.0,14.0,31.5,13.0,2.77,0.45,0.45,180.0,36.0,44.2,3.01
46.8,8.0,28.0,31.5,5.0,3.34,0.45,0.45,180.0,36.0,54.2,3.46
46.8,8.0,28.0,31.5,9.0,3.27,0.45,0.45,180.0,36.0,50.9,3.19
46.8,8.0,28.0,31.5,13.0,2.77,0.45,0.45,180.0,36.0,51.5,3.37
46.8,8.0,35.0,31.5,5.0,3.34,0.45,0.45,180.0,36.0,51.6,3.49
46.8,8.0,35.0,31.5,9.0,3.27,0.45,0.45,180.0,36.0,52.3,3.34
46.8,8.0,35.0,31.5,13.0,2.77,0.45,0.45,180.0,36.0,52.6,3.43
46.8,8.0,42.0,31.5,5.0,3.34,0.45,0.45,180.0,36.0,53.7,3.54
46.8,8.0,42.0,31.5,9.0,3.27,0.45,0.45,180.0,36.0,53.6,3.67
46.8,8.0,42.0,31.5,13.0,2.77,0.45,0.45,180.0,36.0,54.0,3.56
46.8,8.0,56.0,31.5,5.0,3.34,0.45,0.45,180.0,36.0,54.2,3.96
46.8,8.0,56.0,31.5,9.0,3.27,0.45,0.45,180.0,36.0,54.3,3.81
46.8,8.0,56.0,31.5,13.0,2.77,0.45,0.45,180.0,36.0,56.0,3.76
46.8,8.0,70.0,31.5,5.0,3.34,0.45,0.45,180.0,36.0,55.3,4.12
46.8,8.0,70.0,31.5,9.0,3.27,0.45,0.45,180.0,36.0,55.0,3.86
46.8,8.0,70.0,31.5,13.0,2.77,0.45,0.45,180.0,36.0,56.5,3.78
46.8,8.0,84.0,31.5,5.0,3.34,0.45,0.45,180.0,36.0,56.5,4.32
46.8,8.0,84.0,31.5,9.0,3.27,0.45,0.45,180.0,36.0,58.3,4.27
46.8,8.0,84.0,31.5,13.0,2.77,0.45,0.45,180.0,36.0,57.0,4.48
46.8,8.0,98.0,31.5,5.0,3.34,0.45,0.45,180.0,36.0,58.0,4.47
46.8,8.0,98.0,31.5,9.0,3.27,0.45,0.45,180.0,36.0,58.8,4.31
46.8,8.0,98.0,31.5,13.0,2.77,0.45,0.45,180.0,36.0,57.2,4.52
46.8,8.0,118.0,31.5,5.0,3.34,0.45,0.45,180.0,36.0,59.7,4.61
46.8,8.0,118.0,31.5,9.0,3.27,0.45,0.45,180.0,36.0,63.7,4.38
46.8,8.0,118.0,31.5,13.0,2.77,0.45,0.45,180.0,36.0,63.0,4.48
46.8,8.0,148.0,31.5,5.0,3.34,0.45,0.45,180.0,36.0,62.4,4.47
46.8,8.0,148.0,31.5,9.0,3.27,0.45,0.45,180.0,36.0,64.1,4.27
46.8,8.0,148.0,31.5,13.0,2.77,0.45,0.45,180.0,36.0,65.0,4.69
46.8,8.0,178.0,31.5,5.0,3.34,0.45,0.45,180.0,36.0,63.1,4.45
46.8,8.0,178.0,31.5,9.0,3.27,0.45,0.45,180.0,36.0,64.3,4.07
46.8,8.0,178.0,31.5,13.0,2.77,0.45,0.45,180.0,36.0,66.2,4.29
46.8,8.0,208.0,31.5,5.0,3.34,0.45,0.45,180.0,36.0,63.6,4.32
46.8,8.0,208.0,31.5,9.0,3.27,0.45,0.45,180.0,36.0,65.1,4.41
46.8,8.0,208.0,31.5,13.0,2.77,0.45,0.45,180.0,36.0,67.0,4.31
46.8,8.0,238.0,31.5,5.0,3.34,0.45,0.45,180.0,36.0,64.4,4.26
46.8,8.0,238.0,31.5,9.0,3.27,0.45,0.45,180.0,36.0,67.8,4.09
46.8,8.0,238.0,31.5,13.0,2.77,0.45,0.45,180.0,36.0,68.7,4.24
46.8,8.0,268.0,31.5,5.0,3.34,0.45,0.45,180.0,36.0,65.4,4.19
46.8,8.0,268.0,31.5,9.0,3.27,0.45,0.45,180.0,36.0,68.3,4.29
46.8,8.0,268.0,31.5,13.0,2.77,0.45,0.45,180.0,36.0,69.2,4.25
46.8,8.0,298.0,31.5,5.0,3.34,0.45,0.45,180.0,36.0,67.1,4.21
46.8,8.0,298.0,31.5,9.0,3.27,0.45,0.45,180.0,36.0,70.8,4.04
46.8,8.0,298.0,31.5,13.0,2.77,0.45,0.45,180.0,36.0,71.2,4.35
46.8,8.0,328.0,31.5,5.0,3.34,0.45,0.45,180.0,36.0,67.6,4.43
46.8,8.0,328.0,31.5,9.0,3.27,0.45,0.45,180.0,36.0,71.1,4.11
46.8,8.0,328.0,31.5,13.0,2.77,0.45,0.45,180.0,36.0,71.4,4.3
46.8,8.0,358.0,31.5,5.0,3.34,0.45,0.45,180.0,36.0,67.8,4.45
46.8,8.0,358.0,31.5,9.0,3.27,0.45,0.45,180.0,36.0,71.5,4.22
46.8,8.0,358.0,31.5,13.0,2.77,0.45,0.45,180.0,36.0,72.0,4.35
46.8,8.0,388.0,31.5,5.0,3.34,0.45,0.45,180.0,36.0,68.2,4.52
46.8,8.0,388.0,31.5,9.0,3.27,0.45,0.45,180.0,36.0,71.9,4.31
46.8,8.0,388.0,31.5,13.0,2.77,0.45,0.45,180.0,36.0,72.4,4.41
46.8,8.0,3.0,31.5,5.0,3.34,0.4,0.4,185.0,34.0,42.7,2.96
46.8,8.0,3.0,31.5,9.0,3.27,0.4,0.4,185.0,34.0,39.7,2.64
46.8,8.0,3.0,31.5,13.0,2.77,0.4,0.4,185.0,34.0,34.0,2.39
46.8,8.0,7.0,31.5,5.0,3.34,0.4,0.4,185.0,34.0,49.4,3.08
46.8,8.0,7.0,31.5,9.0,3.27,0.4,0.4,185.0,34.0,49.7,3.39
46.8,8.0,7.0,31.5,13.0,2.77,0.4,0.4,185.0,34.0,43.6,3.11
46.8,8.0,14.0,31.5,5.0,3.34,0.4,0.4,185.0,34.0,51.9,3.41
46.8,8.0,14.0,31.5,9.0,3.27,0.4,0.4,185.0,34.0,51.4,3.45
46.8,8.0,14.0,31.5,13.0,2.77,0.4,0.4,185.0,34.0,43.8,3.45
46.8,8.0,28.0,31.5,5.0,3.34,0.4,0.4,185.0,34.0,52.9,3.67
46.8,8.0,28.0,31.5,9.0,3.27,0.4,0.4,185.0,34.0,61.7,3.52
46.8,8.0,28.0,31.5,13.0,2.77,0.4,0.4,185.0,34.0,57.7,3.75
46.8,8.0,42.0,31.5,5.0,3.34,0.4,0.4,185.0,34.0,64.0,3.94
46.8,8.0,42.0,31.5,9.0,3.27,0.4,0.4,185.0,34.0,62.5,3.81
46.8,8.0,42.0,31.5,13.0,2.77,0.4,0.4,185.0,34.0,60.6,3.79
46.8,8.0,56.0,31.5,5.0,3.34,0.4,0.4,185.0,34.0,65.0,3.97
46.8,8.0,56.0,31.5,9.0,3.27,0.4,0.4,185.0,34.0,64.0,4.03
46.8,8.0,56.0,31.5,13.0,2.77,0.4,0.4,185.0,34.0,61.2,3.99
46.8,8.0,84.0,31.5,5.0,3.34,0.4,0.4,185.0,34.0,66.9,4.02
46.8,8.0,84.0,31.5,9.0,3.27,0.4,0.4,185.0,34.0,64.6,4.42
46.8,8.0,84.0,31.5,13.0,2.77,0.4,0.4,185.0,34.0,63.0,4.35
46.8,8.0,118.0,31.5,5.0,3.34,0.4,0.4,185.0,34.0,67.3,4.37
46.8,8.0,118.0,31.5,9.0,3.27,0.4,0.4,185.0,34.0,65.0,4.47
46.8,8.0,118.0,31.5,13.0,2.77,0.4,0.4,185.0,34.0,64.0,4.03
46.8,8.0,178.0,31.5,5.0,3.34,0.4,0.4,185.0,34.0,68.0,4.68
46.8,8.0,178.0,31.5,9.0,3.27,0.4,0.4,185.0,34.0,69.6,4.33
46.8,8.0,178.0,31.5,13.0,2.77,0.4,0.4,185.0,34.0,67.8,3.99
46.8,8.0,238.0,31.5,5.0,3.34,0.4,0.4,185.0,34.0,73.0,4.55
46.8,8.0,238.0,31.5,9.0,3.27,0.4,0.4,185.0,34.0,71.0,4.02
46.8,8.0,238.0,31.5,13.0,2.77,0.4,0.4,185.0,34.0,68.0,4.05
46.8,8.0,298.0,31.5,5.0,3.34,0.4,0.4,185.0,34.0,74.1,4.59
46.8,8.0,298.0,31.5,9.0,3.27,0.4,0.4,185.0,34.0,77.9,4.11
46.8,8.0,298.0,31.5,13.0,2.77,0.4,0.4,185.0,34.0,70.6,4.18
46.8,8.0,358.0,31.5,5.0,3.34,0.4,0.4,185.0,34.0,74.6,4.51
46.8,8.0,358.0,31.5,9.0,3.27,0.4,0.4,185.0,34.0,78.2,4.24
46.8,8.0,358.0,31.5,13.0,2.77,0.4,0.4,185.0,34.0,73.1,4.34
38.2,6.9,28.0,25.0,3.0,3.19,0.47,0.47,190.0,36.0,47.1,2.95
38.2,6.9,28.0,25.0,5.0,3.19,0.47,0.47,190.0,36.0,40.7,3.16
38.2,6.9,28.0,25.0,7.0,3.19,0.47,0.47,190.0,36.0,44.3,3.44
38.2,6.9,28.0,25.0,10.0,3.19,0.47,0.47,190.0,36.0,45.9,3.57
38.2,6.9,28.0,25.0,13.0,3.19,0.47,0.47,190.0,36.0,43.4,3.6
38.2,6.9,28.0,25.0,16.0,3.19,0.47,0.47,190.0,36.0,44.3,3.58
47.7,8.7,28.0,25.0,3.0,3.19,0.32,0.32,170.0,30.0,69.6,4.0
47.7,8.7,28.0,25.0,5.0,3.19,0.32,0.32,170.0,30.0,71.6,4.1
47.7,8.7,28.0,25.0,7.0,3.19,0.32,0.32,170.0,30.0,74.7,4.34
47.7,8.7,28.0,25.0,10.0,3.19,0.32,0.32,170.0,30.0,69.8,3.9
47.7,8.7,28.0,25.0,13.0,3.19,0.32,0.32,170.0,30.0,69.8,4.37
47.7,8.7,28.0,25.0,16.0,3.19,0.32,0.32,170.0,30.0,70.1,4.2
47.7,8.7,28.0,25.0,5.0,3.19,0.44,0.44,180.0,32.0,57.0,3.68
47.7,8.7,28.0,25.0,7.0,3.19,0.44,0.44,180.0,32.0,59.6,3.91
47.7,8.7,28.0,25.0,10.0,3.19,0.44,0.44,180.0,32.0,56.7,4.11
47.7,8.7,28.0,25.0,13.0,3.19,0.44,0.44,180.0,32.0,57.0,3.42
47.7,8.7,28.0,25.0,16.0,3.19,0.44,0.44,180.0,32.0,56.2,2.86
46.3,8.4,28.0,25.0,5.0,3.19,0.56,0.56,170.0,42.0,42.9,3.34
46.3,8.4,28.0,25.0,9.0,3.19,0.56,0.56,170.0,42.0,43.8,3.31
46.3,8.4,28.0,25.0,13.0,3.19,0.56,0.56,170.0,42.0,43.9,2.76
46.3,8.4,28.0,25.0,5.0,3.19,0.45,0.45,185.0,34.0,48.7,3.11
46.3,8.4,28.0,25.0,9.0,3.19,0.45,0.45,185.0,34.0,50.1,3.51
46.3,8.4,28.0,25.0,13.0,3.19,0.45,0.45,185.0,34.0,56.3,4.61
46.3,8.4,28.0,25.0,5.0,3.19,0.4,0.4,190.0,32.0,55.6,4.19
46.3,8.4,28.0,25.0,9.0,3.19,0.4,0.4,190.0,32.0,60.7,4.33
46.3,8.4,28.0,25.0,13.0,3.19,0.4,0.4,190.0,32.0,57.2,2.45
46.3,8.4,28.0,25.0,5.0,3.19,0.32,0.32,175.0,28.0,70.9,3.95
46.3,8.4,28.0,25.0,9.0,3.19,0.32,0.32,175.0,28.0,68.1,4.23
46.3,8.4,28.0,25.0,13.0,3.19,0.32,0.32,175.0,28.0,66.7,5.45
38.2,6.9,28.0,26.5,3.0,3.23,0.47,0.47,190.0,36.0,40.3,3.32
38.2,6.9,28.0,26.5,7.0,3.23,0.47,0.47,190.0,36.0,38.7,3.14
38.2,6.9,28.0,26.5,13.0,3.23,0.47,0.47,190.0,36.0,40.7,2.96
47.7,8.7,28.0,26.5,3.0,3.23,0.44,0.44,180.0,32.0,50.4,3.65
47.7,8.7,28.0,26.5,7.0,3.23,0.44,0.44,180.0,32.0,50.3,3.88
47.7,8.7,28.0,26.5,13.0,3.23,0.44,0.44,180.0,32.0,55.4,4.08
47.7,8.7,28.0,26.5,3.0,3.23,0.32,0.32,170.0,30.0,62.6,4.57
47.7,8.7,28.0,26.5,7.0,3.23,0.32,0.32,170.0,30.0,63.1,5.16
47.7,8.7,28.0,26.5,13.0,3.23,0.32,0.32,170.0,30.0,59.9,5.32
48.2,8.4,28.0,26.5,5.0,3.23,0.55,0.55,160.0,38.0,43.4,2.96
48.2,8.4,28.0,26.5,9.0,3.23,0.55,0.55,160.0,38.0,44.2,3.45
48.2,8.4,28.0,26.5,13.0,3.23,0.55,0.55,160.0,38.0,43.2,3.2
48.2,8.4,28.0,26.5,5.0,3.23,0.44,0.44,170.0,34.0,55.0,3.3
48.2,8.4,28.0,26.5,9.0,3.23,0.44,0.44,170.0,34.0,52.4,3.47
48.2,8.4,28.0,26.5,13.0,3.23,0.44,0.44,170.0,34.0,53.5,3.18
48.2,8.4,28.0,26.5,5.0,3.23,0.36,0.36,170.0,32.0,59.9,3.51
48.2,8.4,28.0,26.5,9.0,3.23,0.36,0.36,170.0,32.0,57.2,5.24
48.2,8.4,28.0,26.5,13.0,3.23,0.36,0.36,170.0,32.0,59.6,4.53
48.2,8.4,28.0,26.5,5.0,3.23,0.31,0.31,170.0,30.0,68.2,3.62
48.2,8.4,28.0,26.5,9.0,3.23,0.31,0.31,170.0,30.0,68.3,3.99
48.2,8.4,28.0,26.5,13.0,3.23,0.31,0.31,170.0,30.0,66.0,4.36
46.3,8.4,28.0,26.5,6.75,3.19,0.56,0.56,170.0,42.0,39.2,3.47
46.3,8.4,28.0,26.5,6.75,3.19,0.44,0.44,180.0,32.0,50.1,3.77
46.3,8.4,28.0,26.5,6.75,3.19,0.32,0.32,170.0,28.0,59.1,4.31
48.3,7.4,28.0,25.0,7.5,2.9,0.51,1.01,222.0,45.0,57.0,2.87
48.3,8.06,28.0,30.0,4.3,3.0,0.25,0.33,150.0,41.0,74.4,5.41
43.7,7.5,60.0,30.0,4.3,3.0,0.25,0.33,150.0,41.0,84.5,6.37
43.7,7.5,90.0,30.0,4.3,3.0,0.25,0.33,150.0,41.0,94.1,6.5
43.7,7.5,120.0,30.0,4.3,3.0,0.25,0.33,150.0,41.0,100.5,6.65
52.7,9.0,28.0,31.5,5.8,3.1,0.42,0.42,185.0,36.0,38.3,3.04
52.7,9.0,28.0,31.5,5.8,3.1,0.44,0.44,185.0,36.0,36.2,2.75
52.7,9.0,28.0,31.5,5.8,3.1,0.46,0.46,185.0,36.0,34.2,2.6
52.7,9.0,28.0,31.5,5.8,3.1,0.42,0.42,185.0,32.0,35.9,2.42
51.12,8.78,28.0,31.5,5.8,3.1,0.42,0.42,185.0,40.0,37.3,3.24
50.14,8.442,28.0,26.6,9.44,2.976,0.45,0.45,180.0,39.0,47.4,4.98
46.8,8.0,28.0,31.5,9.8,3.084,0.5,0.5,180.0,39.0,45.3,4.68
49.12,8.56,28.0,28.9,10.4,3.116,0.55,0.55,180.0,40.0,41.7,4.5
51.06,8.6,28.0,27.6,4.3,2.86,0.494,0.494,182.0,39.2,35.8,1.63
52.68,9.08,28.0,30.2,7.5,3.04,0.454,0.454,184.0,35.6,36.5,1.77
50.52,8.46,28.0,39.3,10.8,2.76,0.522,0.522,178.0,38.2,37.8,1.84
47.408,8.44,28.0,48.7,19.2,2.35,0.44,0.518,149.95,42.2,34.3,1.72
35.5,7.2,28.0,30.0,14.2,2.2,0.57,0.57,178.0,35.0,27.9,1.97
35.5,7.2,28.0,30.0,14.2,2.2,0.64,0.64,178.0,35.0,24.7,2.05
35.5,7.2,28.0,30.0,14.2,2.2,0.69,0.69,178.0,35.0,22.8,2.11
38.2,6.9,28.0,20.0,13.0,3.55,0.59,0.59,203.0,40.0,43.1,2.65
48.28,7.98,28.0,20.0,7.8,3.55,0.63,0.63,241.0,40.0,38.9,2.18
43.96,7.9,28.0,20.0,16.3,3.55,0.56,0.56,185.0,39.0,39.0,2.87
38.2,6.9,28.0,20.0,11.3,3.55,0.47,0.47,196.0,43.0,49.0,2.19
63.4,10.2,28.0,16.0,3.0,3.5,0.25,0.48,150.0,37.0,94.3,6.2
63.4,10.2,28.0,16.0,5.0,3.5,0.25,0.48,150.0,37.0,94.6,6.4
63.4,10.2,28.0,16.0,7.0,3.5,0.25,0.48,150.0,37.0,96.3,5.4
63.4,10.2,28.0,16.0,10.0,3.5,0.25,0.48,150.0,37.0,91.0,5.6
55.6,8.91,1.0,20.0,19.4,2.8,0.28,0.4,180.0,45.0,4.23,0.6
55.6,8.91,3.0,20.0,19.4,2.8,0.28,0.4,180.0,45.0,14.9,1.35
55.6,8.91,7.0,20.0,19.4,2.8,0.28,0.4,180.0,45.0,28.3,2.24
55.6,8.91,14.0,20.0,19.4,2.8,0.28,0.4,180.0,45.0,40.9,3.01
55.6,8.91,28.0,20.0,19.4,2.8,0.28,0.4,180.0,45.0,50.8,3.64
55.6,8.91,60.0,20.0,19.4,2.8,0.28,0.4,180.0,45.0,59.5,4.32
55.6,8.91,90.0,20.0,19.4,2.8,0.28,0.4,180.0,45.0,65.4,4.43
62.4,8.4,28.0,40.0,7.1,2.664,0.45,0.56,109.0,36.0,24.8,1.98
62.4,8.4,28.0,40.0,9.1,2.688,0.45,0.56,111.0,36.0,28.1,2.23
62.4,8.4,28.0,40.0,11.2,2.748,0.45,0.56,113.0,36.0,29.8,2.41
62.4,8.4,28.0,40.0,13.3,2.73,0.45,0.56,116.0,36.0,31.5,2.47
62.4,8.4,28.0,40.0,15.5,2.73,0.45,0.56,119.0,36.0,34.0,2.65
62.4,8.4,28.0,40.0,17.8,2.782,0.45,0.56,122.0,36.0,33.2,2.68
59.56,8.4,28.0,40.0,20.0,2.782,0.45,0.56,124.0,36.0,32.8,2.54
56.72,8.4,28.0,40.0,22.1,2.782,0.45,0.56,126.0,36.0,31.6,2.37
59.56,8.4,28.0,40.0,7.1,2.832,0.45,0.56,129.0,42.0,24.1,2.01
56.72,8.4,28.0,40.0,9.1,2.832,0.45,0.56,131.0,42.0,27.5,2.36
53.88,8.4,28.0,40.0,11.2,2.73,0.45,0.56,133.0,42.0,29.0,2.37
46.92,8.22,28.0,40.0,13.3,2.73,0.45,0.56,136.0,42.0,30.9,2.41
46.92,8.22,28.0,40.0,15.5,2.73,0.45,0.56,139.0,42.0,33.7,2.47
47.7,8.42,28.0,40.0,17.8,2.782,0.45,0.56,142.0,42.0,32.4,2.56
47.96,8.44,28.0,40.0,20.0,2.782,0.45,0.56,144.0,42.0,31.2,2.52
47.96,8.44,28.0,40.0,22.1,2.782,0.45,0.56,146.0,42.0,30.9,2.41
62.4,8.4,7.0,40.0,6.0,2.568,0.36,0.48,126.0,35.0,24.6,1.95
62.4,8.4,7.0,40.0,9.0,2.66,0.36,0.48,128.0,34.0,25.3,2.25
54.92,8.04,7.0,40.0,12.0,2.736,0.36,0.48,130.0,34.0,25.0,2.09
54.92,8.04,7.0,40.0,15.0,2.868,0.36,0.48,131.0,33.0,24.8,1.97
43.7,7.5,7.0,40.0,18.0,3.0,0.36,0.48,135.0,33.0,26.1,2.29
59.52,8.6,28.0,40.0,6.0,2.782,0.36,0.48,126.0,35.0,40.1,3.13
53.84,8.6,28.0,40.0,9.0,2.782,0.36,0.48,128.0,34.0,41.8,2.88
51.0,8.6,28.0,40.0,12.0,2.782,0.36,0.48,130.0,34.0,41.4,3.03
51.0,8.6,28.0,40.0,15.0,2.782,0.36,0.48,131.0,33.0,41.3,3.21
46.4,8.04,28.0,40.0,18.0,2.87,0.36,0.48,135.0,33.0,41.1,3.07
54.92,8.04,90.0,40.0,6.0,2.632,0.36,0.48,126.0,35.0,55.1,3.82
51.18,7.86,90.0,40.0,9.0,2.668,0.36,0.48,128.0,34.0,56.1,3.9
54.92,8.04,90.0,40.0,12.0,2.632,0.36,0.48,130.0,34.0,51.0,3.79
54.92,8.04,90.0,40.0,15.0,2.632,0.36,0.48,131.0,33.0,51.5,3.77
43.7,7.5,90.0,40.0,18.0,2.808,0.36,0.48,135.0,33.0,53.2,4.12
43.7,7.5,180.0,40.0,6.0,2.94,0.36,0.48,126.0,35.0,54.8,3.97
43.7,7.5,180.0,40.0,9.0,2.94,0.36,0.48,128.0,34.0,61.6,4.45
43.7,7.5,180.0,40.0,12.0,2.94,0.36,0.48,130.0,34.0,54.6,4.51
43.7,7.5,180.0,40.0,15.0,2.94,0.36,0.48,131.0,33.0,54.8,4.02
43.7,7.5,180.0,40.0,18.0,2.94,0.36,0.48,135.0,33.0,58.8,4.5
52.5,8.8,3.0,20.0,5.4,3.11,0.37,0.44,166.0,44.0,19.0,1.6
52.5,8.8,7.0,20.0,5.4,3.11,0.37,0.44,166.0,44.0,31.5,2.4
52.5,8.8,28.0,20.0,5.4,3.11,0.37,0.44,166.0,44.0,45.8,2.6
52.5,8.8,56.0,20.0,5.4,3.11,0.37,0.44,166.0,44.0,53.0,3.6
52.5,8.8,3.0,20.0,5.4,3.11,0.34,0.34,158.0,42.0,48.2,3.6
52.5,8.8,7.0,20.0,5.4,3.11,0.34,0.34,158.0,42.0,56.6,3.8
52.5,8.8,28.0,20.0,5.4,3.11,0.34,0.34,158.0,42.0,69.1,4.0
52.5,8.8,56.0,20.0,5.4,3.11,0.34,0.34,158.0,42.0,69.4,4.4
52.7,9.0,3.0,31.5,6.6,2.94,0.42,0.42,185.0,36.0,23.4,2.03
52.7,9.0,28.0,31.5,6.6,2.94,0.42,0.42,185.0,36.0,35.6,3.04
52.7,9.0,3.0,31.5,6.6,2.94,0.44,0.44,185.0,36.0,23.7,1.93
52.7,9.0,28.0,31.5,6.6,2.94,0.44,0.44,185.0,36.0,32.2,2.74
52.7,9.0,3.0,31.5,6.6,2.94,0.46,0.46,185.0,36.0,22.5,2.09
52.7,9.0,28.0,31.5,6.6,2.94,0.46,0.46,185.0,36.0,34.2,2.59
52.7,9.0,3.0,31.5,6.6,2.94,0.42,0.42,185.0,32.0,23.6,1.69
52.7,9.0,28.0,31.5,6.6,2.94,0.42,0.42,185.0,32.0,35.8,2.43
52.7,9.0,3.0,31.5,6.6,2.94,0.44,0.44,185.0,34.0,25.2,1.52
52.7,9.0,28.0,31.5,6.6,2.94,0.44,0.44,185.0,34.0,38.3,2.6
52.7,9.0,3.0,31.5,6.6,2.94,0.46,0.46,185.0,36.0,23.3,1.8
52.7,9.0,28.0,31.5,6.6,2.94,0.46,0.46,185.0,36.0,37.2,3.24
43.7,7.5,3.0,25.0,0.4,2.3,0.3,0.425,153.0,41.0,46.3,3.04
43.7,7.5,7.0,25.0,0.4,2.3,0.3,0.425,153.0,41.0,58.5,3.53
43.7,7.5,28.0,25.0,0.4,2.3,0.3,0.425,153.0,41.0,72.7,4.15
43.7,7.5,60.0,25.0,0.4,2.3,0.3,0.425,153.0,41.0,76.8,4.59
43.7,7.5,90.0,25.0,0.4,2.3,0.3,0.425,153.0,41.0,80.8,4.82
43.7,7.5,120.0,25.0,0.4,2.3,0.3,0.425,153.0,41.0,83.8,5.03
43.7,7.5,180.0,25.0,0.4,2.3,0.3,0.425,153.0,41.0,84.6,5.07
43.7,7.5,365.0,25.0,0.4,2.3,0.3,0.425,153.0,41.0,87.2,5.14
43.7,7.5,3.0,25.0,2.3,3.1,0.3,0.428,152.0,38.0,46.2,3.19
43.7,7.5,7.0,25.0,2.3,3.1,0.3,0.428,152.0,38.0,56.9,3.58
43.7,7.5,28.0,25.0,2.3,3.1,0.3,0.428,152.0,38.0,74.5,4.36
43.7,7.5,60.0,25.0,2.3,3.1,0.3,0.428,152.0,38.0,79.3,4.65
43.7,7.5,90.0,25.0,2.3,3.1,0.3,0.428,152.0,38.0,81.3,4.89
43.7,7.5,120.0,25.0,2.3,3.1,0.3,0.428,152.0,38.0,82.6,4.99
43.7,7.5,180.0,25.0,2.3,3.1,0.3,0.428,152.0,38.0,83.5,5.05
43.7,7.5,365.0,25.0,2.3,3.1,0.3,0.428,152.0,38.0,85.2,5.17
43.7,7.5,3.0,25.0,2.34,3.1,0.3,0.428,152.0,38.0,48.5,3.24
43.7,7.5,7.0,25.0,4.14,3.1,0.3,0.428,152.0,38.0,60.4,3.8
43.7,7.5,28.0,25.0,2.82,3.1,0.3,0.428,152.0,38.0,75.9,4.49
43.7,7.5,60.0,25.0,3.74,3.1,0.3,0.428,152.0,38.0,82.1,4.78
43.7,7.5,90.0,25.0,3.92,3.1,0.3,0.428,152.0,38.0,84.2,4.92
43.7,7.5,120.0,25.0,3.92,3.1,0.3,0.428,152.0,38.0,86.1,5.05
43.7,7.5,180.0,25.0,6.2,3.1,0.3,0.428,152.0,38.0,88.6,5.18
43.7,7.5,365.0,25.0,6.2,3.1,0.3,0.428,152.0,38.0,90.7,5.39
43.7,7.5,3.0,25.0,6.3,3.1,0.3,0.428,152.0,38.0,50.7,3.42
43.7,7.5,7.0,25.0,6.3,3.1,0.3,0.428,152.0,38.0,61.0,3.9
43.7,7.5,28.0,25.0,6.3,3.1,0.3,0.428,152.0,38.0,79.5,4.73
43.7,7.5,60.0,25.0,6.3,3.1,0.3,0.428,152.0,38.0,85.4,5.05
43.7,7.5,90.0,25.0,6.3,3.1,0.3,0.428,152.0,38.0,87.3,5.18
43.7,7.5,120.0,25.0,6.3,3.1,0.3,0.428,152.0,38.0,88.5,5.24
43.7,7.5,180.0,25.0,6.3,3.1,0.3,0.428,152.0,38.0,90.2,5.32
43.7,7.5,365.0,25.0,6.3,3.1,0.3,0.428,152.0,38.0,92.2,5.48
43.7,7.5,3.0,25.0,3.52,3.1,0.3,0.3,152.0,38.0,58.7,3.54
43.7,7.5,7.0,25.0,4.14,3.1,0.3,0.3,152.0,38.0,66.7,3.98
43.7,7.5,28.0,25.0,2.82,3.1,0.3,0.3,152.0,38.0,78.8,4.61
43.7,7.5,60.0,25.0,3.74,3.1,0.3,0.3,152.0,38.0,84.1,4.97
43.7,7.5,90.0,25.0,3.92,3.1,0.3,0.3,152.0,38.0,86.2,5.15
43.7,7.5,120.0,25.0,3.92,3.1,0.3,0.3,152.0,38.0,86.9,5.19
43.7,7.5,180.0,25.0,6.2,3.1,0.3,0.3,152.0,38.0,87.1,5.22
43.7,7.5,365.0,25.0,6.2,3.1,0.3,0.3,152.0,38.0,88.1,5.23
43.7,7.5,3.0,25.0,3.34,3.1,0.32,0.457,152.0,39.0,44.0,3.16
43.7,7.5,7.0,25.0,3.52,3.1,0.32,0.457,152.0,39.0,56.1,3.54
43.7,7.5,28.0,25.0,2.82,3.1,0.32,0.457,152.0,39.0,70.7,4.32
43.7,7.5,60.0,25.0,3.74,3.1,0.32,0.457,152.0,39.0,78.7,4.76
43.7,7.5,90.0,25.0,3.12,3.1,0.32,0.457,152.0,39.0,82.5,4.96
43.7,7.5,120.0,25.0,3.92,3.1,0.32,0.457,152.0,39.0,85.7,5.11
43.7,7.5,180.0,25.0,6.2,3.1,0.32,0.457,152.0,39.0,88.2,5.25
43.7,7.5,365.0,25.0,6.2,3.1,0.32,0.457,152.0,39.0,92.0,5.4
55.8,10.8,7.0,25.0,4.2,2.8,0.24,0.3,135.0,34.0,76.7,6.0
55.8,10.8,28.0,19.6,4.2,2.8,0.24,0.3,135.0,34.0,93.5,6.7
55.8,10.8,7.0,25.0,9.69,2.74,0.24,0.3,135.0,34.0,84.4,5.8
55.8,10.8,28.0,19.6,9.69,2.74,0.24,0.3,135.0,34.0,95.3,6.9
55.8,10.8,7.0,25.0,4.2,2.8,0.24,0.3,135.0,34.0,78.1,5.5
55.8,10.8,28.0,19.6,4.2,2.8,0.24,0.3,135.0,34.0,90.2,6.2
55.8,10.8,7.0,25.0,4.2,2.8,0.24,0.3,135.0,34.0,82.4,5.8
55.8,10.8,28.0,19.6,4.2,2.8,0.24,0.3,135.0,34.0,90.6,6.4
55.8,10.8,7.0,25.0,9.69,2.74,0.24,0.3,135.0,34.0,83.1,5.9
55.8,10.8,28.0,19.6,9.69,2.74,0.24,0.3,135.0,34.0,89.4,6.7
55.2,8.9,28.0,25.0,0.8,2.85,0.33,0.47,176.0,41.7,67.3,4.35
55.2,8.9,28.0,25.0,0.8,2.85,0.33,0.47,168.0,38.8,67.4,4.38
55.2,8.9,28.0,25.0,0.8,2.85,0.33,0.47,160.0,36.1,68.0,4.48
55.2,8.9,28.0,25.0,0.8,2.85,0.33,0.47,153.0,33.5,69.1,4.52
55.2,8.9,28.0,25.0,0.8,2.85,0.33,0.47,166.0,35.0,68.0,4.42
55.2,8.9,28.0,25.0,0.8,2.85,0.33,0.47,160.0,36.0,68.0,4.48
55.2,8.9,28.0,25.0,0.8,2.85,0.33,0.47,155.0,37.0,69.3,4.5
55.2,8.9,28.0,25.0,0.8,2.85,0.33,0.47,149.0,38.0,73.5,4.55
55.2,8.9,28.0,25.0,0.8,2.85,0.33,0.47,144.0,39.0,68.8,4.32
55.2,8.9,28.0,25.0,0.8,2.85,0.33,0.47,153.0,33.5,69.1,4.52
55.2,8.9,28.0,25.0,0.8,2.85,0.33,0.47,147.0,34.5,69.2,4.53
55.2,8.9,28.0,25.0,0.8,2.85,0.33,0.47,145.0,35.0,70.8,4.55
55.2,8.9,28.0,25.0,0.8,2.85,0.33,0.47,142.0,35.5,71.9,4.58
55.2,8.9,28.0,25.0,0.8,2.85,0.33,0.47,139.0,36.0,70.3,4.43
55.2,8.9,28.0,25.0,0.8,2.85,0.45,0.47,173.0,38.0,46.3,3.25
55.2,8.9,28.0,25.0,0.8,2.85,0.4,0.47,164.0,38.0,55.0,3.56
55.2,8.9,28.0,25.0,0.8,2.85,0.35,0.47,154.0,38.0,66.5,3.85
55.2,8.9,28.0,25.0,0.8,2.85,0.33,0.47,149.0,38.0,73.5,4.55
55.2,8.9,28.0,25.0,0.8,2.85,0.32,0.47,147.0,38.0,74.3,4.6
55.2,8.9,28.0,25.0,0.8,2.85,0.3,0.47,142.0,38.0,82.5,4.65
55.2,8.9,28.0,25.0,0.8,2.85,0.25,0.47,128.0,38.0,70.8,4.28
55.2,8.9,28.0,25.0,0.8,2.85,0.3,0.43,120.0,38.0,78.0,4.35
55.2,8.9,28.0,25.0,0.8,2.85,0.3,0.43,142.0,38.0,82.5,4.65
55.2,8.9,28.0,25.0,0.8,2.85,0.3,0.43,163.0,38.0,76.5,4.25
55.2,8.9,28.0,25.0,0.8,2.85,0.3,0.43,184.0,38.0,76.0,4.19
55.2,8.9,28.0,25.0,0.8,2.85,0.3,0.43,206.0,38.0,74.2,4.14
55.2,8.9,28.0,25.0,0.8,2.85,0.3,0.43,248.0,38.0,74.0,4.13
55.2,8.9,28.0,25.0,0.8,2.85,0.3,0.43,291.0,38.0,74.0,4.12
39.82,7.2,28.0,20.0,8.46,3.0,0.44,0.51,205.0,39.0,52.03,3.3
48.48,8.3,28.0,20.0,9.42,3.0,0.39,0.47,205.0,38.0,60.14,3.7
50.7,8.78,28.0,20.0,5.56,3.0,0.33,0.41,170.0,38.0,80.37,4.4
50.42,8.72,28.0,20.0,3.72,3.0,0.26,0.4,175.0,37.0,89.24,4.6
52.6,9.4,7.0,25.0,0.0,3.1,0.55,0.55,180.0,42.0,24.3,1.28
52.6,9.4,28.0,25.0,0.0,3.1,0.55,0.55,180.0,42.0,34.6,1.68
52.6,9.4,7.0,25.0,3.0,3.1,0.55,0.55,180.0,42.0,24.8,1.34
52.6,9.4,28.0,25.0,3.0,3.1,0.55,0.55,180.0,42.0,34.9,1.8
52.6,9.4,7.0,25.0,5.0,3.1,0.55,0.55,180.0,42.0,25.9,1.34
52.6,9.4,28.0,25.0,5.0,3.1,0.55,0.55,180.0,42.0,35.9,1.82
52.6,9.4,7.0,25.0,7.0,3.1,0.55,0.55,180.0,42.0,25.5,1.48
52.6,9.4,28.0,25.0,7.0,3.1,0.55,0.55,180.0,42.0,36.4,1.96
52.6,9.4,7.0,25.0,10.0,3.1,0.55,0.55,180.0,42.0,26.3,1.64
52.6,9.4,28.0,25.0,10.0,3.1,0.55,0.55,180.0,42.0,37.9,2.15
52.6,9.4,7.0,25.0,15.0,3.1,0.55,0.55,180.0,42.0,27.4,1.72
52.6,9.4,28.0,25.0,15.0,3.1,0.55,0.55,180.0,42.0,38.2,2.19
52.6,9.4,7.0,25.0,20.0,3.1,0.55,0.55,180.0,42.0,25.7,1.81
52.6,9.4,28.0,25.0,20.0,3.1,0.55,0.55,180.0,42.0,36.5,2.17
47.22,8.02,3.0,20.0,3.0,3.3,0.3,0.38,166.0,48.0,48.9,3.35
45.46,7.76,7.0,20.0,3.0,3.3,0.3,0.38,166.0,48.0,64.1,5.36
50.06,8.32,28.0,20.0,3.0,3.3,0.3,0.38,166.0,48.0,80.2,5.75
48.98,8.28,3.0,20.0,7.0,3.3,0.3,0.38,166.0,48.0,49.0,3.07
45.46,7.76,7.0,20.0,7.0,3.3,0.3,0.38,166.0,48.0,66.3,5.65
50.06,8.32,28.0,20.0,7.0,3.3,0.3,0.38,166.0,48.0,80.1,6.01
48.98,8.28,3.0,20.0,10.0,3.3,0.3,0.38,166.0,48.0,48.2,2.97
47.22,8.02,7.0,20.0,10.0,3.3,0.3,0.38,166.0,48.0,61.7,5.33
54.66,8.88,28.0,20.0,10.0,3.3,0.3,0.38,166.0,48.0,75.3,5.85
47.24,8.52,28.0,26.2,20.0,3.214,0.44,0.44,186.0,30.0,51.2,3.78
47.42,8.64,28.0,25.3,16.8,3.198,0.44,0.44,184.0,30.0,54.0,3.96
44.5,7.8,28.0,25.0,4.2,2.6,0.54,0.54,185.0,38.0,28.8,2.73
44.5,7.8,28.0,25.0,4.2,2.6,0.45,0.45,185.0,38.0,35.0,3.31
44.5,7.8,28.0,25.0,4.2,2.6,0.4,0.4,190.0,38.0,39.8,3.72
47.7,7.9,28.0,80.0,18.0,2.8,0.46,0.46,135.0,27.0,28.9,1.98
47.66,8.14,28.0,80.0,16.8,2.8,0.46,0.46,160.0,32.0,33.3,2.42
47.7,7.9,28.0,80.0,21.7,2.8,0.46,0.46,160.0,32.0,30.2,2.26
47.7,7.9,28.0,80.0,21.8,2.8,0.48,0.48,150.0,34.0,30.0,2.15
47.7,7.9,28.0,80.0,21.8,2.8,0.48,0.48,130.0,28.0,28.0,1.98
47.7,7.9,28.0,80.0,16.7,2.8,0.48,0.48,130.0,28.0,25.3,1.89
47.7,7.9,28.0,80.0,18.0,2.8,0.53,0.53,130.0,29.0,24.9,1.84
47.7,7.9,28.0,80.0,18.2,2.8,0.53,0.53,130.0,29.0,22.5,1.7
47.7,7.9,28.0,80.0,17.4,2.8,0.53,0.53,130.0,29.0,26.7,1.84
47.7,7.9,28.0,80.0,17.5,2.8,0.58,0.58,134.0,29.0,24.4,1.7
48.74,8.0,28.0,80.0,16.8,2.8,0.58,0.58,134.0,29.0,29.6,2.25
47.7,7.9,28.0,80.0,20.0,2.8,0.58,0.58,134.0,29.0,21.3,1.7
47.7,7.9,28.0,80.0,18.2,2.8,0.63,0.63,133.0,30.0,20.0,1.59
47.7,7.9,28.0,80.0,18.2,2.8,0.63,0.63,138.0,30.0,19.0,1.36
47.7,7.9,28.0,80.0,20.0,2.8,0.63,0.63,133.0,31.0,18.2,1.42
40.72,7.76,28.0,20.0,12.1,3.1,0.5,0.5,107.6,28.4,26.5,2.69
47.328,8.96,28.0,20.0,15.0,3.1,0.5,0.5,164.4,36.8,31.8,2.91
43.908,8.52,28.0,20.0,18.0,3.1,0.5,0.5,164.15,39.0,30.9,2.83
45.768,8.22,28.0,20.0,21.0,3.1,0.5,0.5,185.35,40.0,30.8,2.69
51.14,7.96,28.0,54.0,13.8,2.6,0.5,0.5,116.6,33.4,22.3,2.26
49.164,8.3,28.0,72.0,20.8,2.9,0.5,0.5,164.0,30.8,28.4,2.42
50.32,8.02,28.0,64.0,25.9,3.3,0.5,0.5,156.4,32.2,26.5,2.36
52.7,9.0,28.0,40.0,5.0,2.888,0.5,0.5,187.0,35.2,27.5,2.31
52.7,9.0,28.0,40.0,10.0,2.904,0.5,0.5,188.0,35.2,28.1,2.42
51.12,8.78,28.0,40.0,15.0,2.698,0.5,0.5,189.0,35.0,29.2,2.39
42.66,7.84,28.0,40.0,20.0,2.77,0.5,0.5,190.0,33.8,28.7,2.54
41.64,7.74,28.0,40.0,25.0,2.79,0.5,0.5,191.0,35.4,29.8,2.36
48.24,8.54,28.0,40.0,5.0,2.956,0.6,0.6,183.0,36.4,24.2,2.0
41.36,7.82,28.0,40.0,10.0,2.428,0.6,0.6,184.0,34.8,25.1,2.04
40.8,7.7,28.0,40.0,15.0,2.45,0.6,0.6,185.0,34.6,26.6,2.31
39.22,7.48,28.0,40.0,20.0,2.74,0.6,0.6,186.0,35.8,23.5,2.17
39.22,7.48,28.0,40.0,25.0,2.74,0.6,0.6,187.0,37.4,23.1,1.99
47.7,7.9,28.0,80.0,5.0,2.812,0.5,0.5,150.0,30.8,29.0,2.5
47.7,7.9,28.0,80.0,10.0,2.812,0.5,0.5,151.0,30.8,31.2,2.64
48.74,8.0,28.0,80.0,15.0,2.722,0.5,0.5,152.0,30.8,34.8,2.76
48.74,8.0,28.0,80.0,20.0,2.73,0.5,0.5,153.0,30.8,33.5,2.57
47.7,7.9,28.0,80.0,25.0,2.83,0.5,0.5,154.0,30.8,32.9,2.49
47.7,7.9,28.0,80.0,5.0,2.78,0.7,0.7,151.0,31.4,21.6,1.87
47.7,7.9,28.0,80.0,10.0,2.78,0.7,0.7,151.0,31.4,23.3,2.09
47.7,7.9,28.0,80.0,15.0,2.78,0.7,0.7,152.0,31.0,26.3,2.09
47.7,7.9,28.0,80.0,20.0,2.88,0.7,0.7,152.0,31.0,23.5,1.74
47.7,7.9,28.0,80.0,25.0,2.88,0.7,0.7,154.0,31.4,22.5,1.7
44.8,7.9,7.0,31.5,5.0,2.6,0.5,0.5,180.0,42.0,25.9,1.38
44.8,7.9,28.0,31.5,5.0,2.6,0.5,0.5,180.0,42.0,35.9,1.82
44.8,7.9,7.0,31.5,10.0,2.6,0.5,0.5,180.0,42.0,25.5,1.64
44.8,7.9,28.0,31.5,10.0,2.6,0.5,0.5,180.0,42.0,35.9,2.15
44.8,7.9,7.0,31.5,15.0,2.6,0.5,0.5,180.0,42.0,25.4,1.72
44.8,7.9,28.0,31.5,15.0,2.6,0.5,0.5,180.0,42.0,35.9,2.19
44.8,7.9,7.0,31.5,20.0,2.6,0.5,0.5,180.0,42.0,24.7,2.01
44.8,7.9,28.0,31.5,20.0,2.6,0.5,0.5,180.0,42.0,35.5,2.17
47.6,8.5,7.0,40.0,6.0,3.2,0.55,0.55,175.0,42.0,27.3,1.6
47.6,8.5,7.0,40.0,12.0,3.2,0.55,0.55,175.0,41.0,30.1,1.7
47.6,8.5,7.0,40.0,18.0,3.2,0.55,0.55,175.0,40.0,31.7,2.0
47.6,8.5,28.0,40.0,6.0,3.2,0.55,0.55,175.0,42.0,33.3,2.1
47.6,8.5,28.0,40.0,12.0,3.2,0.55,0.55,175.0,41.0,36.3,2.4
47.6,8.5,28.0,40.0,18.0,3.2,0.55,0.55,175.0,40.0,38.0,2.6
51.7,9.1,28.0,25.0,6.0,3.2,0.38,0.38,179.0,35.0,61.3,4.25
51.7,9.1,28.0,25.0,9.0,3.2,0.38,0.38,179.0,35.0,62.7,4.34
51.7,9.1,28.0,25.0,12.0,3.2,0.38,0.38,179.0,35.0,60.8,4.01
51.7,9.1,28.0,25.0,12.0,3.2,0.38,0.38,179.0,35.0,60.6,4.29
51.7,9.1,28.0,25.0,12.0,3.2,0.38,0.38,179.0,35.0,62.4,4.17
60.8,8.5,28.0,80.0,15.26,2.67,0.38,0.38,114.0,26.0,39.8,2.71
60.8,8.5,28.0,80.0,11.8,2.67,0.38,0.38,114.0,26.0,34.3,2.92
47.7,7.9,28.0,80.0,16.94,2.67,0.62,0.77,120.0,30.0,17.9,1.22
47.7,7.9,28.0,80.0,16.94,2.67,0.62,0.77,120.0,30.0,18.6,1.8
47.7,7.9,28.0,80.0,16.94,2.67,0.62,0.77,120.0,30.0,20.6,1.94
47.7,7.9,28.0,80.0,16.94,2.67,0.62,0.77,120.0,30.0,18.2,1.8
47.7,7.9,28.0,80.0,18.1,2.67,0.62,0.77,120.0,30.0,23.7,1.83
54.48,8.42,28.0,80.0,12.0,2.88,0.5,0.625,110.0,26.0,32.5,2.88
56.06,8.44,28.0,80.0,16.0,2.73,0.5,0.625,110.0,26.0,35.8,2.73
54.48,8.42,28.0,80.0,16.0,2.73,0.5,0.625,110.0,28.0,30.2,2.4
56.06,8.44,28.0,80.0,21.0,2.54,0.4,0.5,110.0,24.0,39.6,2.74
54.48,8.42,28.0,80.0,21.0,2.54,0.5,0.625,110.0,26.0,30.7,2.47
56.06,8.44,28.0,80.0,21.0,2.54,0.6,0.75,110.0,28.0,36.5,2.14
46.8,8.0,7.0,31.5,0.0,3.326,0.4,0.4,190.0,30.0,37.2,2.45
51.52,8.8,7.0,31.5,10.0,2.906,0.4,0.4,190.0,30.0,29.6,2.69
46.8,8.0,7.0,31.5,20.0,2.87,0.4,0.4,190.0,30.0,38.4,2.4
46.8,8.0,7.0,31.5,30.0,2.77,0.4,0.4,190.0,30.0,41.1,2.78
48.56,8.182,7.0,29.2,40.0,2.762,0.4,0.4,190.0,30.0,42.5,3.07
52.7,9.0,7.0,31.5,0.0,2.94,0.7,0.7,190.0,34.0,16.4,1.13
52.7,9.0,7.0,31.5,10.0,2.94,0.7,0.7,190.0,34.0,17.9,1.36
50.1,8.622,7.0,27.9,20.0,2.808,0.7,0.7,190.0,34.0,16.3,1.08
50.68,8.604,7.0,25.6,30.0,2.78,0.7,0.7,190.0,34.0,19.7,1.47
50.68,8.604,7.0,27.3,40.0,2.8,0.7,0.7,190.0,34.0,21.0,1.38
52.68,9.08,7.0,30.2,0.0,2.972,1.0,1.0,190.0,42.0,7.9,0.62
53.86,8.964,7.0,26.9,10.0,2.884,1.0,1.0,190.0,42.0,9.5,0.71
50.68,8.604,7.0,25.6,20.0,2.78,1.0,1.0,190.0,42.0,10.5,0.8
52.84,8.806,7.0,23.3,30.0,2.82,1.0,1.0,190.0,42.0,12.4,0.99
52.84,8.806,7.0,23.3,40.0,2.82,1.0,1.0,190.0,42.0,13.1,1.11
39.82,7.2,28.0,25.3,0.0,3.198,0.4,0.4,190.0,30.0,46.4,2.88
41.44,7.5,28.0,25.0,10.0,3.19,0.4,0.4,190.0,30.0,48.1,3.01
43.16,7.72,28.0,26.3,20.0,3.106,0.4,0.4,190.0,30.0,50.5,3.23
43.34,7.86,28.0,24.0,30.0,3.054,0.4,0.4,190.0,30.0,50.1,2.9
46.82,8.262,28.0,22.0,40.0,3.016,0.4,0.4,190.0,30.0,51.6,3.15
49.42,8.52,28.0,35.3,0.0,2.836,0.7,0.7,190.0,34.0,23.8,1.82
44.18,8.04,28.0,36.0,10.0,2.868,0.7,0.7,190.0,34.0,24.4,1.9
37.9,7.28,28.0,32.0,20.0,3.02,0.7,0.7,190.0,34.0,27.7,1.62
40.78,7.78,28.0,36.0,30.0,3.02,0.7,0.7,190.0,34.0,25.7,1.86
40.78,7.78,28.0,36.0,40.0,2.94,0.7,0.7,190.0,34.0,26.7,1.58
42.54,7.8,28.0,37.0,0.0,2.688,1.0,1.0,190.0,42.0,14.1,0.98
40.74,7.68,28.0,36.0,10.0,2.64,1.0,1.0,190.0,42.0,13.0,1.18
39.16,7.46,28.0,36.0,20.0,2.92,1.0,1.0,190.0,42.0,14.2,1.23
40.78,7.78,28.0,36.0,30.0,2.92,1.0,1.0,190.0,42.0,17.2,1.33
41.564,7.78,28.0,36.0,40.0,2.92,1.0,1.0,190.0,42.0,17.3,1.39
52.9,8.4,7.0,80.0,15.0,2.8,0.5,0.66,104.0,30.0,20.4,1.61
52.9,8.4,7.0,80.0,15.0,2.8,0.5,0.66,108.0,30.0,19.9,1.57
52.9,8.4,7.0,80.0,15.0,2.8,0.5,0.66,110.0,30.0,19.2,1.53
52.9,8.4,7.0,80.0,15.0,2.8,0.5,0.66,114.0,30.0,18.4,1.5
52.9,8.4,7.0,80.0,15.0,2.8,0.5,0.66,115.0,30.0,18.4,1.5
52.9,8.4,28.0,80.0,15.0,2.8,0.5,0.66,104.0,30.0,29.7,3.04
52.9,8.4,28.0,80.0,15.0,2.8,0.5,0.66,108.0,30.0,29.7,3.02
52.9,8.4,28.0,80.0,15.0,2.8,0.5,0.66,110.0,30.0,28.5,2.91
51.86,8.3,28.0,80.0,15.0,2.8,0.5,0.66,114.0,30.0,27.4,2.84
51.86,8.3,28.0,80.0,15.0,2.8,0.5,0.66,115.0,30.0,27.1,2.75
52.9,8.4,90.0,80.0,15.0,2.8,0.5,0.66,104.0,30.0,40.9,3.43
52.9,8.4,90.0,80.0,15.0,2.8,0.5,0.66,108.0,30.0,40.2,3.37
52.9,8.4,90.0,80.0,15.0,2.8,0.5,0.66,110.0,30.0,39.4,3.26
52.9,8.4,90.0,80.0,15.0,2.8,0.5,0.66,114.0,30.0,38.3,3.19
52.9,8.4,90.0,80.0,15.0,2.8,0.5,0.66,115.0,30.0,37.5,3.15
40.78,7.78,28.0,36.0,24.0,2.7,0.57,0.57,192.0,35.0,21.8,2.41
41.08,7.4,28.0,26.3,24.0,2.7,0.43,0.43,193.0,32.0,39.7,3.68
62.4,8.4,7.0,120.0,12.1,2.56,0.55,0.92,83.5,26.5,8.1,0.56
62.4,8.4,7.0,120.0,12.1,2.56,0.55,0.92,83.5,26.5,9.7,0.68
62.4,8.4,7.0,120.0,12.1,2.56,0.55,0.92,83.5,27.0,9.9,0.72
62.4,8.4,7.0,120.0,12.1,2.56,0.55,0.92,83.5,27.0,10.7,0.8
52.9,8.4,7.0,120.0,12.1,2.56,0.45,0.64,98.0,29.5,15.2,1.2
52.9,8.4,7.0,120.0,12.1,2.56,0.45,0.64,98.0,29.5,16.7,1.21
52.9,8.4,7.0,120.0,12.1,2.56,0.45,0.64,98.0,30.0,19.2,1.38
52.9,8.4,7.0,120.0,12.1,2.56,0.45,0.64,98.0,30.0,19.6,1.31
62.4,8.4,28.0,120.0,12.1,2.56,0.55,0.92,83.5,26.5,12.6,0.95
62.4,8.4,28.0,120.0,12.1,2.56,0.55,0.92,83.5,26.5,14.7,1.12
62.4,8.4,28.0,120.0,12.1,2.56,0.55,0.92,83.5,27.0,16.4,1.39
62.4,8.4,28.0,120.0,12.1,2.56,0.55,0.92,83.5,27.0,16.6,1.41
52.9,8.4,28.0,80.0,12.1,2.56,0.45,0.64,98.0,29.5,23.5,1.73
52.9,8.4,28.0,80.0,12.1,2.56,0.45,0.64,98.0,29.5,26.7,1.78
52.9,8.4,28.0,80.0,12.1,2.56,0.45,0.64,98.0,30.0,28.3,1.88
52.9,8.4,28.0,80.0,12.1,2.56,0.45,0.64,98.0,30.0,31.1,2.08
62.4,8.4,90.0,120.0,12.1,2.56,0.55,0.92,83.5,26.5,21.1,1.51
62.4,8.4,90.0,120.0,12.1,2.56,0.55,0.92,83.5,26.5,24.2,1.65
62.4,8.4,90.0,120.0,12.1,2.56,0.55,0.92,83.5,27.0,26.8,1.76
62.4,8.4,90.0,120.0,12.1,2.56,0.55,0.92,83.5,27.0,26.1,2.11
52.9,8.4,90.0,120.0,12.1,2.56,0.45,0.64,98.0,29.5,36.7,2.45
52.9,8.4,90.0,120.0,12.1,2.56,0.45,0.64,98.0,29.5,37.0,2.44
52.9,8.4,90.0,120.0,12.1,2.56,0.45,0.64,98.0,30.0,40.4,2.65
52.9,8.4,90.0,120.0,12.1,2.56,0.45,0.64,98.0,30.0,41.1,2.9
62.4,8.4,7.0,88.0,11.2,2.44,0.45,0.64,87.0,27.0,18.6,1.43
62.4,8.4,7.0,72.0,11.2,2.44,0.45,0.64,87.0,26.0,12.9,1.03
62.4,8.4,7.0,72.0,11.2,2.44,0.5,0.83,87.0,28.0,13.3,0.98
62.4,8.4,7.0,56.0,11.2,2.44,0.5,0.83,87.0,27.0,9.6,0.71
62.4,8.4,7.0,40.0,13.0,2.68,0.5,0.83,89.0,36.0,15.5,0.79
62.4,8.4,7.0,40.0,13.0,2.68,0.5,1.0,88.0,36.0,11.9,0.72
62.4,8.4,7.0,40.0,13.0,2.68,0.5,1.11,88.0,36.0,9.3,0.61
62.4,8.4,7.0,40.0,11.2,2.44,0.5,0.83,103.0,36.0,11.6,0.9
62.4,8.4,7.0,40.0,11.2,2.44,0.5,1.0,102.0,36.0,9.2,0.72
62.4,8.4,7.0,40.0,11.2,2.44,0.5,1.11,102.0,36.0,7.8,0.65
62.4,8.4,28.0,28.0,11.2,2.44,0.45,0.64,87.0,27.0,29.8,2.23
62.4,8.4,28.0,52.0,11.2,2.44,0.45,0.64,87.0,26.0,22.3,1.56
62.4,8.4,28.0,52.0,11.2,2.44,0.5,0.83,87.0,28.0,23.5,1.73
62.4,8.4,28.0,88.0,11.2,2.44,0.5,0.83,87.0,27.0,18.0,1.46
62.4,8.4,28.0,40.0,13.0,2.68,0.5,0.83,89.0,36.0,23.6,2.04
62.4,8.4,28.0,40.0,13.0,2.68,0.5,1.0,88.0,36.0,21.5,1.8
62.4,8.4,28.0,40.0,13.0,2.68,0.5,1.11,88.0,36.0,19.9,1.62
62.4,8.4,28.0,40.0,11.2,2.44,0.5,0.83,103.0,36.0,21.6,1.96
62.4,8.4,28.0,40.0,11.2,2.44,0.5,1.0,102.0,36.0,20.0,1.69
62.4,8.4,28.0,40.0,11.2,2.44,0.5,1.11,102.0,36.0,18.5,1.53
62.4,8.4,90.0,40.0,13.0,2.68,0.5,0.83,89.0,36.0,32.8,2.2
62.4,8.4,90.0,40.0,13.0,2.68,0.5,1.0,88.0,36.0,28.0,2.12
62.4,8.4,90.0,40.0,13.0,2.68,0.5,1.11,88.0,36.0,25.5,2.1
62.4,8.4,90.0,40.0,11.2,2.44,0.5,0.83,103.0,36.0,29.8,2.52
62.4,8.4,90.0,40.0,11.2,2.44,0.5,1.0,102.0,36.0,27.8,2.18
62.4,8.4,90.0,40.0,11.2,2.44,0.5,1.11,102.0,36.0,26.9,1.95
52.9,8.4,28.0,80.0,10.8,2.42,0.45,0.64,98.0,30.0,28.8,1.71
54.8,8.4,28.0,80.0,12.4,2.57,0.45,0.64,95.0,31.0,30.6,1.99
62.4,8.4,28.0,120.0,10.8,2.42,0.55,0.92,88.0,27.0,14.7,1.1
62.4,8.4,28.0,120.0,12.4,2.57,0.55,0.92,85.0,28.0,20.2,1.43
52.9,8.4,90.0,80.0,10.8,2.42,0.45,0.64,98.0,30.0,41.3,2.33
54.8,8.4,90.0,80.0,12.4,2.57,0.45,0.64,95.0,31.0,44.0,3.0
62.4,8.4,90.0,120.0,10.8,2.42,0.55,0.92,88.0,27.0,24.8,1.8
62.4,8.4,90.0,120.0,12.4,2.57,0.55,0.92,85.0,28.0,30.9,2.26
62.4,8.4,7.0,40.0,11.9,2.86,0.5,0.83,88.0,30.6,15.5,0.79
62.4,8.4,7.0,40.0,11.9,2.86,0.5,1.0,88.0,30.6,11.9,0.72
62.4,8.4,7.0,40.0,11.9,2.86,0.5,1.11,88.0,30.6,9.3,0.61
62.4,8.4,7.0,40.0,11.9,2.86,0.5,1.11,88.0,30.6,7.5,0.6
62.4,8.4,7.0,40.0,11.9,2.86,0.5,1.25,88.0,30.6,7.8,0.47
62.4,8.4,7.0,40.0,11.9,2.86,0.5,1.43,88.0,30.6,5.8,0.46
62.4,8.4,7.0,40.0,6.1,2.92,0.5,0.83,102.0,36.0,11.6,0.9
62.4,8.4,7.0,40.0,6.1,2.92,0.5,1.0,102.0,36.0,9.2,0.72
62.4,8.4,7.0,40.0,6.1,2.92,0.5,1.11,102.0,36.0,7.8,0.65
62.4,8.4,7.0,60.0,11.9,2.86,0.5,0.83,75.0,28.8,14.0,1.18
62.4,8.4,7.0,60.0,11.9,2.86,0.5,1.0,75.0,28.8,12.5,0.84
62.4,8.4,7.0,60.0,11.9,2.86,0.5,1.11,75.0,28.8,9.2,0.62
62.4,8.4,7.0,60.0,11.9,2.86,0.5,1.25,75.0,28.8,8.3,0.57
62.4,8.4,7.0,60.0,11.9,2.86,0.5,1.43,75.0,28.8,6.9,0.56
62.4,8.4,7.0,80.0,11.9,2.86,0.5,0.83,71.0,27.0,15.2,0.96
62.4,8.4,7.0,80.0,11.9,2.86,0.5,1.0,71.0,27.0,12.9,0.86
62.4,8.4,7.0,80.0,11.9,2.86,0.5,1.11,71.0,27.0,10.3,0.65
62.4,8.4,7.0,80.0,11.9,2.86,0.5,1.11,71.0,27.0,9.0,0.64
62.4,8.4,7.0,80.0,11.9,2.86,0.5,1.25,71.0,27.0,7.4,0.52
62.4,8.4,7.0,80.0,11.9,2.86,0.5,1.43,71.0,27.0,4.8,0.35
62.4,8.4,7.0,80.0,6.1,2.92,0.5,0.83,82.0,27.6,12.4,0.96
62.4,8.4,7.0,80.0,6.1,2.92,0.5,1.0,82.0,27.6,9.2,0.72
62.4,8.4,7.0,80.0,6.1,2.92,0.5,1.11,82.0,27.6,6.8,0.55
62.4,8.4,7.0,80.0,6.1,2.92,0.5,1.25,82.0,27.6,6.5,0.54
62.4,8.4,7.0,80.0,6.1,2.92,0.5,1.43,82.0,27.6,6.8,0.54
62.4,8.4,28.0,40.0,11.9,2.86,0.5,0.83,88.0,32.4,23.6,2.04
62.4,8.4,28.0,40.0,11.9,2.86,0.5,1.0,88.0,32.4,21.5,1.8
62.4,8.4,28.0,40.0,11.9,2.86,0.5,1.11,88.0,32.2,19.9,1.62
62.4,8.4,28.0,40.0,11.9,2.86,0.5,1.11,88.0,32.2,13.2,1.13
62.4,8.4,28.0,40.0,11.9,2.86,0.5,1.25,88.0,32.2,15.9,1.4
62.4,8.4,28.0,40.0,11.9,2.86,0.5,1.43,88.0,32.2,11.3,1.08
62.4,8.4,28.0,40.0,6.1,2.92,0.5,0.83,102.0,36.0,21.6,1.96
62.4,8.4,28.0,40.0,6.1,2.92,0.5,1.0,102.0,36.0,20.0,1.69
62.4,8.4,28.0,40.0,6.1,2.92,0.5,1.11,102.0,36.0,18.5,1.53
62.4,8.4,28.0,60.0,11.9,2.86,0.5,0.83,75.0,28.8,24.5,2.18
62.4,8.4,28.0,60.0,11.9,2.86,0.5,1.0,75.0,28.8,21.4,1.63
62.4,8.4,28.0,60.0,11.9,2.86,0.5,1.11,75.0,28.8,19.6,1.26
62.4,8.4,28.0,60.0,11.9,2.86,0.5,1.25,75.0,28.8,16.9,1.09
62.4,8.4,28.0,60.0,11.9,2.86,0.5,1.43,75.0,28.8,13.2,1.02
62.4,8.4,28.0,80.0,11.9,2.86,0.5,0.83,71.0,27.8,24.1,2.1
62.4,8.4,28.0,80.0,11.9,2.86,0.5,1.0,71.0,27.8,21.5,1.8
62.4,8.4,28.0,80.0,11.9,2.86,0.5,1.11,71.0,27.8,20.1,1.6
62.4,8.4,28.0,80.0,11.9,2.86,0.5,1.11,71.0,27.5,16.2,1.46
62.4,8.4,28.0,80.0,11.9,2.86,0.5,1.25,71.0,27.2,14.9,1.45
62.4,8.4,28.0,80.0,11.9,2.86,0.5,1.43,71.0,27.0,10.1,1.08
62.4,8.4,28.0,80.0,6.1,2.92,0.5,0.83,82.0,27.8,21.8,1.92
62.4,8.4,28.0,80.0,6.1,2.92,0.5,1.0,82.0,27.5,18.9,1.42
62.4,8.4,28.0,80.0,6.1,2.92,0.5,1.11,82.0,27.5,14.0,1.06
62.4,8.4,28.0,80.0,6.1,2.92,0.5,1.25,82.0,27.5,13.5,1.11
62.4,8.4,28.0,80.0,6.1,2.92,0.5,1.43,82.0,27.5,12.9,1.16
62.4,8.4,90.0,40.0,11.9,2.86,0.5,0.83,88.0,36.0,32.8,2.2
62.4,8.4,90.0,40.0,11.9,2.86,0.5,1.0,88.0,36.0,28.0,2.12
62.4,8.4,90.0,40.0,11.9,2.86,0.5,1.11,88.0,36.0,25.5,2.1
62.4,8.4,90.0,40.0,11.9,2.86,0.5,1.11,88.0,36.0,24.4,2.09
62.4,8.4,90.0,40.0,11.9,2.86,0.5,1.25,88.0,36.0,22.9,2.05
62.4,8.4,90.0,40.0,11.9,2.86,0.5,1.43,88.0,36.0,20.8,1.99
62.4,8.4,90.0,40.0,6.1,2.92,0.5,0.83,102.0,36.0,29.8,2.52
62.4,8.4,90.0,40.0,6.1,2.92,0.5,1.0,102.0,36.0,27.8,2.18
62.4,8.4,90.0,40.0,6.1,2.92,0.5,1.11,102.0,36.0,26.9,1.95
62.4,8.4,90.0,60.0,11.9,2.86,0.5,0.83,75.0,33.8,34.6,2.88
62.4,8.4,90.0,60.0,11.9,2.86,0.5,1.0,75.0,33.8,27.9,2.29
62.4,8.4,90.0,60.0,11.9,2.86,0.5,1.11,75.0,36.0,24.3,2.08
62.4,8.4,90.0,60.0,11.9,2.86,0.5,1.25,75.0,36.0,23.5,1.93
62.4,8.4,90.0,60.0,11.9,2.86,0.5,1.43,75.0,36.0,22.5,1.8
62.4,8.4,90.0,80.0,11.9,2.86,0.5,0.83,71.0,30.2,33.4,2.45
62.4,8.4,90.0,80.0,11.9,2.86,0.5,1.0,71.0,30.2,30.1,2.2
62.4,8.4,90.0,80.0,11.9,2.86,0.5,1.11,71.0,30.2,29.1,2.13
62.4,8.4,90.0,80.0,11.9,2.86,0.5,1.11,71.0,30.2,21.5,1.9
62.4,8.4,90.0,80.0,11.9,2.86,0.5,1.25,71.0,30.2,20.2,2.05
62.4,8.4,90.0,80.0,11.9,2.86,0.5,1.43,71.0,30.2,17.5,1.87
62.4,8.4,90.0,80.0,6.1,2.92,0.5,0.83,82.0,30.2,30.2,2.49
62.4,8.4,90.0,80.0,6.1,2.92,0.5,1.0,82.0,30.2,28.2,2.21
62.4,8.4,90.0,80.0,6.1,2.92,0.5,1.11,82.0,30.2,27.7,2.1
62.4,8.4,90.0,80.0,6.1,2.92,0.5,1.25,82.0,30.2,27.0,2.01
62.4,8.4,90.0,80.0,6.1,2.92,0.5,1.43,82.0,30.2,26.5,2.0
52.9,8.4,7.0,80.0,6.0,2.68,0.5,0.67,104.0,30.0,15.2,1.44
52.9,8.4,7.0,80.0,9.0,2.68,0.5,0.67,112.0,30.0,15.2,1.56
52.9,8.4,7.0,80.0,12.0,2.68,0.5,0.67,114.0,30.0,16.4,1.59
52.9,8.4,7.0,80.0,15.0,2.68,0.5,0.67,115.0,30.0,18.5,1.5
52.9,8.4,7.0,80.0,18.0,2.68,0.5,0.67,117.0,30.0,16.2,1.62
52.9,8.4,7.0,80.0,15.0,2.68,0.5,0.67,110.0,30.0,18.2,1.7
52.9,8.4,7.0,80.0,15.0,2.68,0.5,0.67,108.0,30.0,15.8,1.58
52.9,8.4,7.0,80.0,9.0,2.68,0.5,0.668,111.0,30.0,16.6,1.54
52.9,8.4,7.0,80.0,6.0,2.68,0.5,0.668,112.0,30.0,17.2,1.58
52.9,8.4,28.0,80.0,6.0,2.68,0.5,0.67,104.0,30.0,22.6,2.49
51.86,8.3,28.0,80.0,9.0,2.68,0.5,0.67,112.0,30.0,26.2,2.33
50.82,8.2,28.0,80.0,12.0,2.68,0.5,0.67,114.0,30.0,24.2,2.36
51.86,8.3,28.0,80.0,15.0,2.68,0.5,0.67,115.0,30.0,27.3,2.75
50.82,8.2,28.0,80.0,18.0,2.68,0.5,0.67,117.0,30.0,26.7,2.76
52.9,8.4,28.0,80.0,15.0,2.68,0.5,0.67,110.0,30.0,26.5,2.48
52.9,8.4,28.0,80.0,15.0,2.68,0.5,0.67,108.0,30.0,23.1,2.27
54.48,8.42,28.0,80.0,9.0,2.68,0.5,0.668,111.0,30.0,28.2,2.97
54.48,8.42,28.0,80.0,6.0,2.68,0.5,0.601,112.0,30.0,30.2,2.9
52.9,8.4,90.0,80.0,6.0,2.68,0.5,0.67,104.0,30.0,29.9,3.54
52.9,8.4,90.0,80.0,9.0,2.68,0.5,0.67,112.0,30.0,32.0,3.42
52.9,8.4,90.0,80.0,12.0,2.68,0.5,0.67,114.0,30.0,33.0,3.18
52.9,8.4,90.0,80.0,15.0,2.68,0.5,0.67,115.0,30.0,37.9,3.15
52.9,8.4,90.0,80.0,18.0,2.68,0.5,0.67,117.0,30.0,37.1,3.21
52.9,8.4,90.0,80.0,15.0,2.68,0.5,0.67,110.0,30.0,34.8,3.18
52.9,8.4,90.0,80.0,15.0,2.68,0.5,0.67,108.0,30.0,34.2,2.69
52.9,8.4,90.0,80.0,9.0,2.68,0.5,0.67,111.0,30.0,32.6,3.14
52.9,8.4,90.0,80.0,6.0,2.68,0.5,0.668,112.0,30.0,39.6,3.11
52.9,8.4,7.0,80.0,15.0,2.8,0.5,0.67,104.0,30.0,20.4,1.61
52.9,8.4,7.0,80.0,15.0,2.8,0.5,0.67,108.0,30.0,19.9,1.57
52.9,8.4,7.0,80.0,15.0,2.8,0.5,0.67,110.0,30.0,19.2,1.53
52.9,8.4,7.0,80.0,15.0,2.8,0.5,0.67,114.0,30.0,18.4,1.5
52.9,8.4,7.0,80.0,15.0,2.8,0.5,0.67,115.0,30.0,18.4,1.5
52.9,8.4,28.0,80.0,15.0,2.8,0.5,0.67,104.0,30.0,29.7,3.04
52.9,8.4,28.0,80.0,15.0,2.8,0.5,0.67,108.0,30.0,29.7,3.02
52.9,8.4,28.0,80.0,15.0,2.8,0.5,0.67,110.0,30.0,28.5,2.91
52.9,8.4,28.0,80.0,15.0,2.8,0.5,0.67,114.0,30.0,27.4,2.84
52.9,8.4,28.0,80.0,15.0,2.8,0.5,0.67,115.0,30.0,27.1,2.75
52.9,8.4,90.0,80.0,15.0,2.8,0.5,0.67,104.0,30.0,40.9,3.43
52.9,8.4,90.0,80.0,15.0,2.8,0.5,0.67,108.0,30.0,40.2,3.37
52.9,8.4,90.0,80.0,15.0,2.8,0.5,0.67,110.0,30.0,39.4,3.26
52.9,8.4,90.0,80.0,15.0,2.8,0.5,0.67,114.0,30.0,38.3,3.19
52.9,8.4,90.0,80.0,15.0,2.8,0.5,0.67,115.0,30.0,37.5,3.15
39.42,8.904,7.0,12.0,19.2,2.88,0.37,0.65,178.75,53.0,26.56,1.92
39.42,8.6,28.0,12.0,19.2,2.91,0.37,0.65,178.75,53.0,33.12,2.34
39.42,8.182,90.0,12.0,19.2,2.99,0.37,0.65,178.75,53.0,39.94,3.32
39.42,8.924,7.0,12.0,19.2,2.914,0.34,0.55,178.75,53.0,32.17,2.67
39.42,8.902,28.0,12.0,19.2,2.882,0.34,0.55,178.75,53.0,40.49,3.03
39.42,8.182,90.0,12.0,19.2,2.99,0.34,0.55,178.75,53.0,49.7,3.68
48.07,8.644,7.0,12.0,19.2,2.994,0.34,0.55,178.75,53.0,43.15,2.9
48.07,9.004,28.0,12.0,19.2,3.088,0.34,0.55,178.75,53.0,49.26,3.12
48.07,8.182,90.0,12.0,19.2,2.876,0.34,0.55,178.75,53.0,63.7,4.1
48.07,8.524,7.0,12.0,19.2,3.2,0.31,0.45,180.0,53.0,55.85,3.85
48.07,9.062,28.0,12.0,19.2,3.14,0.31,0.45,180.0,53.0,63.72,3.86
48.07,8.182,90.0,12.0,19.2,2.99,0.31,0.45,180.0,53.0,79.17,4.19
39.42,9.002,7.0,12.0,19.2,2.94,0.4,0.65,178.75,54.0,28.0,2.22
39.42,8.6,28.0,12.0,19.2,2.91,0.4,0.65,178.75,54.0,35.47,3.34
39.42,8.182,90.0,12.0,19.2,2.99,0.4,0.65,178.75,54.0,44.25,3.47
39.42,8.924,7.0,12.0,19.2,2.914,0.36,0.55,178.75,54.0,33.42,2.31
39.42,8.902,28.0,12.0,19.2,2.882,0.36,0.55,178.75,54.0,41.43,3.52
39.42,8.182,90.0,12.0,19.2,2.99,0.36,0.55,178.75,54.0,52.35,3.98
48.07,8.644,7.0,12.0,19.2,2.994,0.36,0.55,178.75,54.0,42.97,3.61
48.07,9.004,28.0,12.0,19.2,2.762,0.36,0.55,178.75,54.0,46.85,4.25
48.07,8.182,90.0,12.0,19.2,2.876,0.36,0.55,178.75,54.0,60.65,4.59
48.07,8.546,7.0,12.0,19.2,3.1,0.32,0.45,180.0,54.0,47.71,3.75
48.07,9.062,28.0,12.0,19.2,3.14,0.32,0.45,180.0,54.0,65.37,4.69
48.07,8.182,90.0,12.0,19.2,2.876,0.32,0.45,180.0,54.0,73.7,4.76