File: artifacts/initial_prepared_data/Updated_init_data.csv
,Compressive strength of cementfce(MPa),Tensile strength of cementfct(MPa),Curing age (day),Dmax of Crushed stone(mm),Stone powder content in Sand (%),Fineness modulus of sand ,W/B,Water to cement ratio mw/mc,Water(kg/m3),Sand ratio(%),Slump(mm),"Compressive strengthfcu,t(MPa)","Splitting tensile strengthfst,t(MPa)"
0,46.8,8.0,3,31.5,5.0,3.34,0.56,0.56,180.0,44.0,50.0,32.5,1.18
1,46.8,8.0,3,31.5,9.0,3.27,0.56,0.56,180.0,44.0,70.0,28.7,1.13
2,46.8,8.0,3,31.5,13.0,2.77,0.56,0.56,180.0,44.0,50.0,28.5,1.56
3,46.8,8.0,7,31.5,5.0,3.34,0.56,0.56,180.0,44.0,50.0,33.5,1.39
4,46.8,8.0,7,31.5,9.0,3.27,0.56,0.56,180.0,44.0,70.0,34.9,1.38
5,46.8,8.0,7,31.5,13.0,2.77,0.56,0.56,180.0,44.0,50.0,34.7,1.42
6,46.8,8.0,14,31.5,5.0,3.34,0.56,0.56,180.0,44.0,50.0,39.7,2.62
7,46.8,8.0,14,31.5,9.0,3.27,0.56,0.56,180.0,44.0,70.0,38.9,3.05
8,46.8,8.0,14,31.5,13.0,2.77,0.56,0.56,180.0,44.0,50.0,37.0,2.31
9,46.8,8.0,28,31.5,5.0,3.34,0.56,0.56,180.0,44.0,50.0,41.2,3.02
10,46.8,8.0,28,31.5,9.0,3.27,0.56,0.56,180.0,44.0,70.0,41.3,3.75
11,46.8,8.0,28,31.5,13.0,2.77,0.56,0.56,180.0,44.0,50.0,40.5,3.01
12,46.8,8.0,42,31.5,5.0,3.34,0.56,0.56,180.0,44.0,50.0,42.0,3.31
13,46.8,8.0,42,31.5,9.0,3.27,0.56,0.56,180.0,44.0,70.0,41.8,3.82
14,46.8,8.0,42,31.5,13.0,2.77,0.56,0.56,180.0,44.0,50.0,42.3,3.43
15,46.8,8.0,56,31.5,5.0,3.34,0.56,0.56,180.0,44.0,50.0,43.8,3.73
16,46.8,8.0,56,31.5,9.0,3.27,0.56,0.56,180.0,44.0,70.0,42.4,3.99
17,46.8,8.0,56,31.5,13.0,2.77,0.56,0.56,180.0,44.0,50.0,45.0,3.68
18,46.8,8.0,84,31.5,5.0,3.34,0.56,0.56,180.0,44.0,50.0,47.4,4.42
19,46.8,8.0,84,31.5,9.0,3.27,0.56,0.56,180.0,44.0,70.0,48.8,4.21
20,46.8,8.0,84,31.5,13.0,2.77,0.56,0.56,180.0,44.0,50.0,48.0,4.48
21,46.8,8.0,118,31.5,5.0,3.34,0.56,0.56,180.0,44.0,50.0,48.9,4.37
22,46.8,8.0,118,31.5,9.0,3.27,0.56,0.56,180.0,44.0,70.0,49.3,4.03
23,46.8,8.0,118,31.5,13.0,2.77,0.56,0.56,180.0,44.0,50.0,48.7,4.41
24,46.8,8.0,178,31.5,5.0,3.34,0.56,0.56,180.0,44.0,50.0,49.7,4.68
25,46.8,8.0,178,31.5,9.0,3.27,0.56,0.56,180.0,44.0,70.0,51.9,4.22
26,46.8,8.0,178,31.5,13.0,2.77,0.56,0.56,180.0,44.0,50.0,49.9,4.42
27,46.8,8.0,238,31.5,5.0,3.34,0.56,0.56,180.0,44.0,50.0,51.1,4.22
28,46.8,8.0,238,31.5,9.0,3.27,0.56,0.56,180.0,44.0,70.0,55.4,3.92
29,46.8,8.0,238,31.5,13.0,2.77,0.56,0.56,180.0,44.0,50.0,54.5,4.12
30,46.8,8.0,298,31.5,5.0,3.34,0.56,0.56,180.0,44.0,50.0,51.2,4.36
31,46.8,8.0,298,31.5,9.0,3.27,0.56,0.56,180.0,44.0,70.0,56.2,4.05
32,46.8,8.0,298,31.5,13.0,2.77,0.56,0.56,180.0,44.0,50.0,54.8,4.23
33,46.8,8.0,358,31.5,5.0,3.34,0.56,0.56,180.0,44.0,50.0,51.6,4.41
34,46.8,8.0,358,31.5,9.0,3.27,0.56,0.56,180.0,44.0,70.0,56.4,4.22
35,46.8,8.0,358,31.5,13.0,2.77,0.56,0.56,180.0,44.0,50.0,55.1,4.32
36,46.8,8.0,3,31.5,5.0,3.34,0.45,0.45,180.0,36.0,110.0,38.4,2.67
37,46.8,8.0,3,31.5,9.0,3.27,0.45,0.45,180.0,36.0,160.0,38.0,2.61
38,46.8,8.0,3,31.5,13.0,2.77,0.45,0.45,180.0,36.0,45.0,38.1,2.71
39,46.8,8.0,7,31.5,5.0,3.34,0.45,0.45,180.0,36.0,110.0,42.2,2.81
40,46.8,8.0,7,31.5,9.0,3.27,0.45,0.45,180.0,36.0,160.0,42.3,3.02
41,46.8,8.0,7,31.5,13.0,2.77,0.45,0.45,180.0,36.0,45.0,41.7,2.95
42,46.8,8.0,14,31.5,5.0,3.34,0.45,0.45,180.0,36.0,110.0,44.9,3.06
43,46.8,8.0,14,31.5,9.0,3.27,0.45,0.45,180.0,36.0,160.0,44.8,3.05
44,46.8,8.0,14,31.5,13.0,2.77,0.45,0.45,180.0,36.0,45.0,44.2,3.01
45,46.8,8.0,28,31.5,5.0,3.34,0.45,0.45,180.0,36.0,110.0,54.2,3.46
46,46.8,8.0,28,31.5,9.0,3.27,0.45,0.45,180.0,36.0,160.0,50.9,3.19
47,46.8,8.0,28,31.5,13.0,2.77,0.45,0.45,180.0,36.0,45.0,51.5,3.37
48,46.8,8.0,35,31.5,5.0,3.34,0.45,0.45,180.0,36.0,110.0,51.6,3.49
49,46.8,8.0,35,31.5,9.0,3.27,0.45,0.45,180.0,36.0,160.0,52.3,3.34
50,46.8,8.0,35,31.5,13.0,2.77,0.45,0.45,180.0,36.0,45.0,52.6,3.43
51,46.8,8.0,42,31.5,5.0,3.34,0.45,0.45,180.0,36.0,110.0,53.7,3.54
52,46.8,8.0,42,31.5,9.0,3.27,0.45,0.45,180.0,36.0,160.0,53.6,3.67
53,46.8,8.0,42,31.5,13.0,2.77,0.45,0.45,180.0,36.0,45.0,54.0,3.56
54,46.8,8.0,56,31.5,5.0,3.34,0.45,0.45,180.0,36.0,110.0,54.2,3.96
55,46.8,8.0,56,31.5,9.0,3.27,0.45,0.45,180.0,36.0,160.0,54.3,3.81
56,46.8,8.0,56,31.5,13.0,2.77,0.45,0.45,180.0,36.0,45.0,56.0,3.76
57,46.8,8.0,70,31.5,5.0,3.34,0.45,0.45,180.0,36.0,110.0,55.3,4.12
58,46.8,8.0,70,31.5,9.0,3.27,0.45,0.45,180.0,36.0,160.0,55.0,3.86
59,46.8,8.0,70,31.5,13.0,2.77,0.45,0.45,180.0,36.0,45.0,56.5,3.78
60,46.8,8.0,84,31.5,5.0,3.34,0.45,0.45,180.0,36.0,110.0,56.5,4.32
61,46.8,8.0,84,31.5,9.0,3.27,0.45,0.45,180.0,36.0,160.0,58.3,4.27
62,46.8,8.0,84,31.5,13.0,2.77,0.45,0.45,180.0,36.0,45.0,57.0,4.48
63,46.8,8.0,98,31.5,5.0,3.34,0.45,0.45,180.0,36.0,110.0,58.0,4.47
64,46.8,8.0,98,31.5,9.0,3.27,0.45,0.45,180.0,36.0,160.0,58.8,4.31
65,46.8,8.0,98,31.5,13.0,2.77,0.45,0.45,180.0,36.0,45.0,57.2,4.52
66,46.8,8.0,118,31.5,5.0,3.34,0.45,0.45,180.0,36.0,110.0,59.7,4.61
67,46.8,8.0,118,31.5,9.0,3.27,0.45,0.45,180.0,36.0,160.0,63.7,4.38
68,46.8,8.0,118,31.5,13.0,2.77,0.45,0.45,180.0,36.0,45.0,63.0,4.48
69,46.8,8.0,148,31.5,5.0,3.34,0.45,0.45,180.0,36.0,110.0,62.4,4.47
70,46.8,8.0,148,31.5,9.0,3.27,0.45,0.45,180.0,36.0,160.0,64.1,4.27
71,46.8,8.0,148,31.5,13.0,2.77,0.45,0.45,180.0,36.0,45.0,65.0,4.69
72,46.8,8.0,178,31.5,5.0,3.34,0.45,0.45,180.0,36.0,110.0,63.1,4.45
73,46.8,8.0,178,31.5,9.0,3.27,0.45,0.45,180.0,36.0,160.0,64.3,4.07
74,46.8,8.0,178,31.5,13.0,2.77,0.45,0.45,180.0,36.0,45.0,66.2,4.29
75,46.8,8.0,208,31.5,5.0,3.34,0.45,0.45,180.0,36.0,110.0,63.6,4.32
76,46.8,8.0,208,31.5,9.0,3.27,0.45,0.45,180.0,36.0,160.0,65.1,4.41
77,46.8,8.0,208,31.5,13.0,2.77,0.45,0.45,180.0,36.0,45.0,67.0,4.31
78,46.8,8.0,238,31.5,5.0,3.34,0.45,0.45,180.0,36.0,110.0,64.4,4.26
79,46.8,8.0,238,31.5,9.0,3.27,0.45,0.45,180.0,36.0,160.0,67.8,4.09
80,46.8,8.0,238,31.5,13.0,2.77,0.45,0.45,180.0,36.0,45.0,68.7,4.24
81,46.8,8.0,268,31.5,5.0,3.34,0.45,0.45,180.0,36.0,110.0,65.4,4.19
82,46.8,8.0,268,31.5,9.0,3.27,0.45,0.45,180.0,36.0,160.0,68.3,4.29
83,46.8,8.0,268,31.5,13.0,2.77,0.45,0.45,180.0,36.0,45.0,69.2,4.25
84,46.8,8.0,298,31.5,5.0,3.34,0.45,0.45,180.0,36.0,110.0,67.1,4.21
85,46.8,8.0,298,31.5,9.0,3.27,0.45,0.45,180.0,36.0,160.0,70.8,4.04
86,46.8,8.0,298,31.5,13.0,2.77,0.45,0.45,180.0,36.0,45.0,71.2,4.35
87,46.8,8.0,328,31.5,5.0,3.34,0.45,0.45,180.0,36.0,110.0,67.6,4.43
88,46.8,8.0,328,31.5,9.0,3.27,0.45,0.45,180.0,36.0,160.0,71.1,4.11
89,46.8,8.0,328,31.5,13.0,2.77,0.45,0.45,180.0,36.0,45.0,71.4,4.3
90,46.8,8.0,358,31.5,5.0,3.34,0.45,0.45,180.0,36.0,110.0,67.8,4.45
91,46.8,8.0,358,31.5,9.0,3.27,0.45,0.45,180.0,36.0,160.0,71.5,4.22
92,46.8,8.0,358,31.5,13.0,2.77,0.45,0.45,180.0,36.0,45.0,72.0,4.35
93,46.8,8.0,388,31.5,5.0,3.34,0.45,0.45,180.0,36.0,110.0,68.2,4.52
94,46.8,8.0,388,31.5,9.0,3.27,0.45,0.45,180.0,36.0,160.0,71.9,4.31
95,46.8,8.0,388,31.5,13.0,2.77,0.45,0.45,180.0,36.0,45.0,72.4,4.41
96,46.8,8.0,3,31.5,5.0,3.34,0.4,0.4,185.0,34.0,30.0,42.7,2.96
97,46.8,8.0,3,31.5,9.0,3.27,0.4,0.4,185.0,34.0,60.0,39.7,2.64
98,46.8,8.0,3,31.5,13.0,2.77,0.4,0.4,185.0,34.0,50.0,34.0,2.39
99,46.8,8.0,7,31.5,5.0,3.34,0.4,0.4,185.0,34.0,30.0,49.4,3.08
100,46.8,8.0,7,31.5,9.0,3.27,0.4,0.4,185.0,34.0,60.0,49.7,3.39
101,46.8,8.0,7,31.5,13.0,2.77,0.4,0.4,185.0,34.0,50.0,43.6,3.11
102,46.8,8.0,14,31.5,5.0,3.34,0.4,0.4,185.0,34.0,30.0,51.9,3.41
103,46.8,8.0,14,31.5,9.0,3.27,0.4,0.4,185.0,34.0,60.0,51.4,3.45
104,46.8,8.0,14,31.5,13.0,2.77,0.4,0.4,185.0,34.0,50.0,43.8,3.45
105,46.8,8.0,28,31.5,5.0,3.34,0.4,0.4,185.0,34.0,30.0,52.9,3.67
106,46.8,8.0,28,31.5,9.0,3.27,0.4,0.4,185.0,34.0,60.0,61.7,3.52
107,46.8,8.0,28,31.5,13.0,2.77,0.4,0.4,185.0,34.0,50.0,57.7,3.75
108,46.8,8.0,42,31.5,5.0,3.34,0.4,0.4,185.0,34.0,30.0,64.0,3.94
109,46.8,8.0,42,31.5,9.0,3.27,0.4,0.4,185.0,34.0,60.0,62.5,3.81
110,46.8,8.0,42,31.5,13.0,2.77,0.4,0.4,185.0,34.0,50.0,60.6,3.79
111,46.8,8.0,56,31.5,5.0,3.34,0.4,0.4,185.0,34.0,30.0,65.0,3.97
112,46.8,8.0,56,31.5,9.0,3.27,0.4,0.4,185.0,34.0,60.0,64.0,4.03
113,46.8,8.0,56,31.5,13.0,2.77,0.4,0.4,185.0,34.0,50.0,61.2,3.99
114,46.8,8.0,84,31.5,5.0,3.34,0.4,0.4,185.0,34.0,30.0,66.9,4.02
115,46.8,8.0,84,31.5,9.0,3.27,0.4,0.4,185.0,34.0,60.0,64.6,4.42
116,46.8,8.0,84,31.5,13.0,2.77,0.4,0.4,185.0,34.0,50.0,63.0,4.35
117,46.8,8.0,118,31.5,5.0,3.34,0.4,0.4,185.0,34.0,30.0,67.3,4.37
118,46.8,8.0,118,31.5,9.0,3.27,0.4,0.4,185.0,34.0,60.0,65.0,4.47
119,46.8,8.0,118,31.5,13.0,2.77,0.4,0.4,185.0,34.0,50.0,64.0,4.03
120,46.8,8.0,178,31.5,5.0,3.34,0.4,0.4,185.0,34.0,30.0,68.0,4.68
121,46.8,8.0,178,31.5,9.0,3.27,0.4,0.4,185.0,34.0,60.0,69.6,4.33
122,46.8,8.0,178,31.5,13.0,2.77,0.4,0.4,185.0,34.0,50.0,67.8,3.99
123,46.8,8.0,238,31.5,5.0,3.34,0.4,0.4,185.0,34.0,30.0,73.0,4.55
124,46.8,8.0,238,31.5,9.0,3.27,0.4,0.4,185.0,34.0,60.0,71.0,4.02
125,46.8,8.0,238,31.5,13.0,2.77,0.4,0.4,185.0,34.0,50.0,68.0,4.05
126,46.8,8.0,298,31.5,5.0,3.34,0.4,0.4,185.0,34.0,30.0,74.1,4.59
127,46.8,8.0,298,31.5,9.0,3.27,0.4,0.4,185.0,34.0,60.0,77.9,4.11
128,46.8,8.0,298,31.5,13.0,2.77,0.4,0.4,185.0,34.0,50.0,70.6,4.18
129,46.8,8.0,358,31.5,5.0,3.34,0.4,0.4,185.0,34.0,30.0,74.6,4.51
130,46.8,8.0,358,31.5,9.0,3.27,0.4,0.4,185.0,34.0,60.0,78.2,4.24
131,46.8,8.0,358,31.5,13.0,2.77,0.4,0.4,185.0,34.0,50.0,73.1,4.34
132,38.2,6.9,28,25.0,3.0,3.19,0.47,0.47,190.0,36.0,22.0,47.1,2.95
133,38.2,6.9,28,25.0,5.0,3.19,0.47,0.47,190.0,36.0,16.0,40.7,3.16
134,38.2,6.9,28,25.0,7.0,3.19,0.47,0.47,190.0,36.0,28.0,44.3,3.44
135,38.2,6.9,28,25.0,10.0,3.19,0.47,0.47,190.0,36.0,11.0,45.9,3.57
136,38.2,6.9,28,25.0,13.0,3.19,0.47,0.47,190.0,36.0,17.0,43.4,3.6
137,38.2,6.9,28,25.0,16.0,3.19,0.47,0.47,190.0,36.0,12.0,44.3,3.58
138,47.7,8.7,28,25.0,3.0,3.19,0.32,0.32,170.0,30.0,20.0,69.6,4.0
139,47.7,8.7,28,25.0,5.0,3.19,0.32,0.32,170.0,30.0,11.0,71.6,4.1
140,47.7,8.7,28,25.0,7.0,3.19,0.32,0.32,170.0,30.0,13.0,74.7,4.34
141,47.7,8.7,28,25.0,10.0,3.19,0.32,0.32,170.0,30.0,35.0,69.8,3.9
142,47.7,8.7,28,25.0,13.0,3.19,0.32,0.32,170.0,30.0,20.0,69.8,4.37
143,47.7,8.7,28,25.0,16.0,3.19,0.32,0.32,170.0,30.0,18.0,70.1,4.2
144,47.7,8.7,28,25.0,5.0,3.19,0.44,0.44,180.0,32.0,85.0,57.0,3.68
145,47.7,8.7,28,25.0,7.0,3.19,0.44,0.44,180.0,32.0,108.0,59.6,3.91
146,47.7,8.7,28,25.0,10.0,3.19,0.44,0.44,180.0,32.0,75.0,56.7,4.11
147,47.7,8.7,28,25.0,13.0,3.19,0.44,0.44,180.0,32.0,80.0,57.0,3.42
148,47.7,8.7,28,25.0,16.0,3.19,0.44,0.44,180.0,32.0,60.0,56.2,2.86
149,46.3,8.4,28,25.0,5.0,3.19,0.56,0.56,170.0,42.0,135.0,42.9,3.34
150,46.3,8.4,28,25.0,9.0,3.19,0.56,0.56,170.0,42.0,80.0,43.8,3.31
151,46.3,8.4,28,25.0,13.0,3.19,0.56,0.56,170.0,42.0,50.0,43.9,2.76
152,46.3,8.4,28,25.0,5.0,3.19,0.45,0.45,185.0,34.0,70.0,48.7,3.11
153,46.3,8.4,28,25.0,9.0,3.19,0.45,0.45,185.0,34.0,160.0,50.1,3.51
154,46.3,8.4,28,25.0,13.0,3.19,0.45,0.45,185.0,34.0,100.0,56.3,4.61
155,46.3,8.4,28,25.0,5.0,3.19,0.4,0.4,190.0,32.0,150.0,55.6,4.19
156,46.3,8.4,28,25.0,9.0,3.19,0.4,0.4,190.0,32.0,170.0,60.7,4.33
157,46.3,8.4,28,25.0,13.0,3.19,0.4,0.4,190.0,32.0,175.0,57.2,2.45
158,46.3,8.4,28,25.0,5.0,3.19,0.32,0.32,175.0,28.0,50.0,70.9,3.95
159,46.3,8.4,28,25.0,9.0,3.19,0.32,0.32,175.0,28.0,110.0,68.1,4.23
160,46.3,8.4,28,25.0,13.0,3.19,0.32,0.32,175.0,28.0,100.0,66.7,5.45
161,38.2,6.9,28,26.5,3.0,3.23,0.47,0.47,190.0,36.0,12.0,40.3,3.32
162,38.2,6.9,28,26.5,7.0,3.23,0.47,0.47,190.0,36.0,19.0,38.7,3.14
163,38.2,6.9,28,26.5,13.0,3.23,0.47,0.47,190.0,36.0,15.0,40.7,2.96
164,47.7,8.7,28,26.5,3.0,3.23,0.44,0.44,180.0,32.0,75.0,50.4,3.65
165,47.7,8.7,28,26.5,7.0,3.23,0.44,0.44,180.0,32.0,83.0,50.3,3.88
166,47.7,8.7,28,26.5,13.0,3.23,0.44,0.44,180.0,32.0,60.0,55.4,4.08
167,47.7,8.7,28,26.5,3.0,3.23,0.32,0.32,170.0,30.0,11.0,62.6,4.57
168,47.7,8.7,28,26.5,7.0,3.23,0.32,0.32,170.0,30.0,15.0,63.1,5.16
169,47.7,8.7,28,26.5,13.0,3.23,0.32,0.32,170.0,30.0,18.0,59.9,5.32
170,48.2,8.4,28,26.5,5.0,3.23,0.55,0.55,160.0,38.0,115.0,43.4,2.96
171,48.2,8.4,28,26.5,9.0,3.23,0.55,0.55,160.0,38.0,125.0,44.2,3.45
172,48.2,8.4,28,26.5,13.0,3.23,0.55,0.55,160.0,38.0,22.0,43.2,3.2
173,48.2,8.4,28,26.5,5.0,3.23,0.44,0.44,170.0,34.0,30.0,55.0,3.3
174,48.2,8.4,28,26.5,9.0,3.23,0.44,0.44,170.0,34.0,135.0,52.4,3.47
175,48.2,8.4,28,26.5,13.0,3.23,0.44,0.44,170.0,34.0,90.0,53.5,3.18
176,48.2,8.4,28,26.5,5.0,3.23,0.36,0.36,170.0,32.0,95.0,59.9,3.51
177,48.2,8.4,28,26.5,9.0,3.23,0.36,0.36,170.0,32.0,85.0,57.2,5.24
178,48.2,8.4,28,26.5,13.0,3.23,0.36,0.36,170.0,32.0,70.0,59.6,4.53
179,48.2,8.4,28,26.5,5.0,3.23,0.31,0.31,170.0,30.0,35.0,68.2,3.62
180,48.2,8.4,28,26.5,9.0,3.23,0.31,0.31,170.0,30.0,20.0,68.3,3.99
181,48.2,8.4,28,26.5,13.0,3.23,0.31,0.31,170.0,30.0,25.0,66.0,4.36
182,46.3,8.4,28,26.5,6.75,3.19,0.56,0.56,170.0,42.0,,39.2,3.47
183,46.3,8.4,28,26.5,6.75,3.19,0.44,0.44,180.0,32.0,,50.1,3.77
184,46.3,8.4,28,26.5,6.75,3.19,0.32,0.32,170.0,28.0,,59.1,4.31
185,48.3,7.4,28,25.0,7.5,2.9,0.51,1.01,222.0,45.0,,57.0,2.87
186,,,28,30.0,4.3,3.0,0.25,0.33,150.0,41.0,,74.4,5.41
187,,,60,30.0,4.3,3.0,0.25,0.33,150.0,41.0,,84.5,6.37
188,,,90,30.0,4.3,3.0,0.25,0.33,150.0,41.0,,94.1,6.5
189,,,120,30.0,4.3,3.0,0.25,0.33,150.0,41.0,,100.5,6.65
190,,,28,31.5,5.8,3.1,0.42,0.42,185.0,36.0,36.0,38.3,3.04
191,,,28,31.5,5.8,3.1,0.44,0.44,185.0,36.0,40.0,36.2,2.75
192,,,28,31.5,5.8,3.1,0.46,0.46,185.0,36.0,43.0,34.2,2.6
193,,,28,31.5,5.8,3.1,0.42,0.42,185.0,32.0,25.0,35.9,2.42
194,,,28,31.5,5.8,3.1,0.42,0.42,185.0,40.0,40.0,37.3,3.24
195,,,28,,,,0.45,0.45,180.0,39.0,205.0,47.4,4.98
196,,,28,,,,0.5,0.5,180.0,39.0,205.0,45.3,4.68
197,,,28,,,,0.55,0.55,180.0,40.0,200.0,41.7,4.5
198,,,28,,4.3,2.86,,,,,,35.8,1.63
199,,,28,,7.5,3.04,,,,,,36.5,1.77
200,,,28,,10.8,2.76,,,,,,37.8,1.84
201,,,28,,19.2,2.35,,,,,,34.3,1.72
202,35.5,7.2,28,30.0,14.2,2.2,0.57,0.57,178.0,35.0,20.0,27.9,1.97
203,35.5,7.2,28,30.0,14.2,2.2,0.64,0.64,178.0,35.0,20.0,24.7,2.05
204,35.5,7.2,28,30.0,14.2,2.2,0.69,0.69,178.0,35.0,20.0,22.8,2.11
205,,,28,20.0,13.0,3.55,0.59,0.59,203.0,40.0,70.0,43.1,2.65
206,,,28,20.0,7.8,3.55,0.63,0.63,241.0,40.0,140.0,38.9,2.18
207,,,28,20.0,16.3,3.55,0.56,0.56,185.0,39.0,100.0,39.0,2.87
208,,,28,20.0,11.3,3.55,0.47,0.47,196.0,43.0,60.0,49.0,2.19
209,63.4,10.2,28,16.0,3.0,3.5,0.25,0.48,150.0,37.0,240.0,94.3,6.2
210,63.4,10.2,28,16.0,5.0,3.5,0.25,0.48,150.0,37.0,225.0,94.6,6.4
211,63.4,10.2,28,16.0,7.0,3.5,0.25,0.48,150.0,37.0,220.0,96.3,5.4
212,63.4,10.2,28,16.0,10.0,3.5,0.25,0.48,150.0,37.0,180.0,91.0,5.6
213,55.6,8.91,1,20.0,19.4,2.8,0.28,0.4,180.0,45.0,,4.23,0.6
214,55.6,8.91,3,20.0,19.4,2.8,0.28,0.4,180.0,45.0,,14.9,1.35
215,55.6,8.91,7,20.0,19.4,2.8,0.28,0.4,180.0,45.0,,28.3,2.24
216,55.6,8.91,14,20.0,19.4,2.8,0.28,0.4,180.0,45.0,,40.9,3.01
217,55.6,8.91,28,20.0,19.4,2.8,0.28,0.4,180.0,45.0,,50.8,3.64
218,55.6,8.91,60,20.0,19.4,2.8,0.28,0.4,180.0,45.0,,59.5,4.32
219,55.6,8.91,90,20.0,19.4,2.8,0.28,0.4,180.0,45.0,,65.4,4.43
220,,,28,40.0,7.1,,0.45,0.56,109.0,36.0,85.0,24.8,1.98
221,,,28,40.0,9.1,,0.45,0.56,111.0,36.0,86.0,28.1,2.23
222,,,28,40.0,11.2,,0.45,0.56,113.0,36.0,83.0,29.8,2.41
223,,,28,40.0,13.3,,0.45,0.56,116.0,36.0,85.0,31.5,2.47
224,,,28,40.0,15.5,,0.45,0.56,119.0,36.0,90.0,34.0,2.65
225,,,28,40.0,17.8,,0.45,0.56,122.0,36.0,88.0,33.2,2.68
226,,,28,40.0,20.0,,0.45,0.56,124.0,36.0,87.0,32.8,2.54
227,,,28,40.0,22.1,,0.45,0.56,126.0,36.0,85.0,31.6,2.37
228,,,28,40.0,7.1,,0.45,0.56,129.0,42.0,171.0,24.1,2.01
229,,,28,40.0,9.1,,0.45,0.56,131.0,42.0,177.0,27.5,2.36
230,,,28,40.0,11.2,,0.45,0.56,133.0,42.0,182.0,29.0,2.37
231,,,28,40.0,13.3,,0.45,0.56,136.0,42.0,176.0,30.9,2.41
232,,,28,40.0,15.5,,0.45,0.56,139.0,42.0,175.0,33.7,2.47
233,,,28,40.0,17.8,,0.45,0.56,142.0,42.0,179.0,32.4,2.56
234,,,28,40.0,20.0,,0.45,0.56,144.0,42.0,180.0,31.2,2.52
235,,,28,40.0,22.1,,0.45,0.56,146.0,42.0,173.0,30.9,2.41
236,,,7,40.0,6.0,,0.36,0.48,126.0,35.0,50.0,24.6,1.95
237,,,7,40.0,9.0,,0.36,0.48,128.0,34.0,45.0,25.3,2.25
238,,,7,40.0,12.0,,0.36,0.48,130.0,34.0,60.0,25.0,2.09
239,,,7,40.0,15.0,,0.36,0.48,131.0,33.0,55.0,24.8,1.97
240,,,7,40.0,18.0,,0.36,0.48,135.0,33.0,60.0,26.1,2.29
241,,,28,40.0,6.0,,0.36,0.48,126.0,35.0,50.0,40.1,3.13
242,,,28,40.0,9.0,,0.36,0.48,128.0,34.0,45.0,41.8,2.88
243,,,28,40.0,12.0,,0.36,0.48,130.0,34.0,60.0,41.4,3.03
244,,,28,40.0,15.0,,0.36,0.48,131.0,33.0,55.0,41.3,3.21
245,,,28,40.0,18.0,,0.36,0.48,135.0,33.0,60.0,41.1,3.07
246,,,90,40.0,6.0,,0.36,0.48,126.0,35.0,50.0,55.1,3.82
247,,,90,40.0,9.0,,0.36,0.48,128.0,34.0,45.0,56.1,3.9
248,,,90,40.0,12.0,,0.36,0.48,130.0,34.0,60.0,51.0,3.79
249,,,90,40.0,15.0,,0.36,0.48,131.0,33.0,55.0,51.5,3.77
250,,,90,40.0,18.0,,0.36,0.48,135.0,33.0,60.0,53.2,4.12
251,,,180,40.0,6.0,,0.36,0.48,126.0,35.0,50.0,54.8,3.97
252,,,180,40.0,9.0,,0.36,0.48,128.0,34.0,45.0,61.6,4.45
253,,,180,40.0,12.0,,0.36,0.48,130.0,34.0,60.0,54.6,4.51
254,,,180,40.0,15.0,,0.36,0.48,131.0,33.0,55.0,54.8,4.02
255,,,180,40.0,18.0,,0.36,0.48,135.0,33.0,60.0,58.8,4.5
256,52.5,8.8,3,20.0,5.4,3.11,0.37,0.44,166.0,44.0,185.0,19.0,1.6
257,52.5,8.8,7,20.0,5.4,3.11,0.37,0.44,166.0,44.0,185.0,31.5,2.4
258,52.5,8.8,28,20.0,5.4,3.11,0.37,0.44,166.0,44.0,185.0,45.8,2.6
259,52.5,8.8,56,20.0,5.4,3.11,0.37,0.44,166.0,44.0,185.0,53.0,3.6
260,52.5,8.8,3,20.0,5.4,3.11,0.34,0.34,158.0,42.0,105.0,48.2,3.6
261,52.5,8.8,7,20.0,5.4,3.11,0.34,0.34,158.0,42.0,105.0,56.6,3.8
262,52.5,8.8,28,20.0,5.4,3.11,0.34,0.34,158.0,42.0,105.0,69.1,4.0
263,52.5,8.8,56,20.0,5.4,3.11,0.34,0.34,158.0,42.0,105.0,69.4,4.4
264,52.7,9.0,3,31.5,6.6,2.94,0.42,0.42,185.0,36.0,35.0,23.4,2.03
265,52.7,9.0,28,31.5,6.6,2.94,0.42,0.42,185.0,36.0,35.0,35.6,3.04
266,52.7,9.0,3,31.5,6.6,2.94,0.44,0.44,185.0,36.0,41.0,23.7,1.93
267,52.7,9.0,28,31.5,6.6,2.94,0.44,0.44,185.0,36.0,41.0,32.2,2.74
268,52.7,9.0,3,31.5,6.6,2.94,0.46,0.46,185.0,36.0,42.0,22.5,2.09
269,52.7,9.0,28,31.5,6.6,2.94,0.46,0.46,185.0,36.0,42.0,34.2,2.59
270,52.7,9.0,3,31.5,6.6,2.94,0.42,0.42,185.0,32.0,25.0,23.6,1.69
271,52.7,9.0,28,31.5,6.6,2.94,0.42,0.42,185.0,32.0,25.0,35.8,2.43
272,52.7,9.0,3,31.5,6.6,2.94,0.44,0.44,185.0,34.0,33.0,25.2,1.52
273,52.7,9.0,28,31.5,6.6,2.94,0.44,0.44,185.0,34.0,33.0,38.3,2.6
274,52.7,9.0,3,31.5,6.6,2.94,0.46,0.46,185.0,36.0,40.0,23.3,1.8
275,52.7,9.0,28,31.5,6.6,2.94,0.46,0.46,185.0,36.0,40.0,37.2,3.24
276,43.7,7.5,3,25.0,0.4,2.3,0.3,0.425,153.0,41.0,220.0,46.3,3.04
277,43.7,7.5,7,25.0,0.4,2.3,0.3,0.425,153.0,41.0,220.0,58.5,3.53
278,43.7,7.5,28,25.0,0.4,2.3,0.3,0.425,153.0,41.0,220.0,72.7,4.15
279,43.7,7.5,60,25.0,0.4,2.3,0.3,0.425,153.0,41.0,220.0,76.8,4.59
280,43.7,7.5,90,25.0,0.4,2.3,0.3,0.425,153.0,41.0,220.0,80.8,4.82
281,43.7,7.5,120,25.0,0.4,2.3,0.3,0.425,153.0,41.0,220.0,83.8,5.03
282,43.7,7.5,180,25.0,0.4,2.3,0.3,0.425,153.0,41.0,220.0,84.6,5.07
283,43.7,7.5,365,25.0,0.4,2.3,0.3,0.425,153.0,41.0,220.0,87.2,5.14
284,43.7,7.5,3,25.0,2.3,3.1,0.3,0.428,152.0,38.0,210.0,46.2,3.19
285,43.7,7.5,7,25.0,2.3,3.1,0.3,0.428,152.0,38.0,210.0,56.9,3.58
286,43.7,7.5,28,25.0,2.3,3.1,0.3,0.428,152.0,38.0,210.0,74.5,4.36
287,43.7,7.5,60,25.0,2.3,3.1,0.3,0.428,152.0,38.0,210.0,79.3,4.65
288,43.7,7.5,90,25.0,2.3,3.1,0.3,0.428,152.0,38.0,210.0,81.3,4.89
289,43.7,7.5,120,25.0,2.3,3.1,0.3,0.428,152.0,38.0,210.0,82.6,4.99
290,43.7,7.5,180,25.0,2.3,3.1,0.3,0.428,152.0,38.0,210.0,83.5,5.05
291,43.7,7.5,365,25.0,2.3,3.1,0.3,0.428,152.0,38.0,210.0,85.2,5.17
292,43.7,7.5,3,25.0,,3.1,0.3,0.428,152.0,38.0,215.0,48.5,3.24
293,43.7,7.5,7,25.0,,3.1,0.3,0.428,152.0,38.0,215.0,60.4,3.8
294,43.7,7.5,28,25.0,,3.1,0.3,0.428,152.0,38.0,215.0,75.9,4.49
295,43.7,7.5,60,25.0,,3.1,0.3,0.428,152.0,38.0,215.0,82.1,4.78
296,43.7,7.5,90,25.0,,3.1,0.3,0.428,152.0,38.0,215.0,84.2,4.92
297,43.7,7.5,120,25.0,,3.1,0.3,0.428,152.0,38.0,215.0,86.1,5.05
298,43.7,7.5,180,25.0,,3.1,0.3,0.428,152.0,38.0,215.0,88.6,5.18
299,43.7,7.5,365,25.0,,3.1,0.3,0.428,152.0,38.0,215.0,90.7,5.39
300,43.7,7.5,3,25.0,6.3,3.1,0.3,0.428,152.0,38.0,202.0,50.7,3.42
301,43.7,7.5,7,25.0,6.3,3.1,0.3,0.428,152.0,38.0,202.0,61.0,3.9
302,43.7,7.5,28,25.0,6.3,3.1,0.3,0.428,152.0,38.0,202.0,79.5,4.73
303,43.7,7.5,60,25.0,6.3,3.1,0.3,0.428,152.0,38.0,202.0,85.4,5.05
304,43.7,7.5,90,25.0,6.3,3.1,0.3,0.428,152.0,38.0,202.0,87.3,5.18
305,43.7,7.5,120,25.0,6.3,3.1,0.3,0.428,152.0,38.0,202.0,88.5,5.24
306,43.7,7.5,180,25.0,6.3,3.1,0.3,0.428,152.0,38.0,202.0,90.2,5.32
307,43.7,7.5,365,25.0,6.3,3.1,0.3,0.428,152.0,38.0,202.0,92.2,5.48
308,43.7,7.5,3,25.0,,3.1,0.3,0.3,152.0,38.0,205.0,58.7,3.54
309,43.7,7.5,7,25.0,,3.1,0.3,0.3,152.0,38.0,205.0,66.7,3.98
310,43.7,7.5,28,25.0,,3.1,0.3,0.3,152.0,38.0,205.0,78.8,4.61
311,43.7,7.5,60,25.0,,3.1,0.3,0.3,152.0,38.0,205.0,84.1,4.97
312,43.7,7.5,90,25.0,,3.1,0.3,0.3,152.0,38.0,205.0,86.2,5.15
313,43.7,7.5,120,25.0,,3.1,0.3,0.3,152.0,38.0,205.0,86.9,5.19
314,43.7,7.5,180,25.0,,3.1,0.3,0.3,152.0,38.0,205.0,87.1,5.22
315,43.7,7.5,365,25.0,,3.1,0.3,0.3,152.0,38.0,205.0,88.1,5.23
316,43.7,7.5,3,25.0,,3.1,0.32,0.457,152.0,39.0,208.0,44.0,3.16
317,43.7,7.5,7,25.0,,3.1,0.32,0.457,152.0,39.0,208.0,56.1,3.54
318,43.7,7.5,28,25.0,,3.1,0.32,0.457,152.0,39.0,208.0,70.7,4.32
319,43.7,7.5,60,25.0,,3.1,0.32,0.457,152.0,39.0,208.0,78.7,4.76
320,43.7,7.5,90,25.0,,3.1,0.32,0.457,152.0,39.0,208.0,82.5,4.96
321,43.7,7.5,120,25.0,,3.1,0.32,0.457,152.0,39.0,208.0,85.7,5.11
322,43.7,7.5,180,25.0,,3.1,0.32,0.457,152.0,39.0,208.0,88.2,5.25
323,43.7,7.5,365,25.0,,3.1,0.32,0.457,152.0,39.0,208.0,92.0,5.4
324,55.8,10.8,7,,4.2,2.8,0.24,0.3,135.0,34.0,180.0,76.7,6.0
325,55.8,10.8,28,,4.2,2.8,0.24,0.3,135.0,34.0,180.0,93.5,6.7
326,55.8,10.8,7,,9.69,2.74,0.24,0.3,135.0,34.0,180.0,84.4,5.8
327,55.8,10.8,28,,9.69,2.74,0.24,0.3,135.0,34.0,180.0,95.3,6.9
328,55.8,10.8,7,,4.2,2.8,0.24,0.3,135.0,34.0,180.0,78.1,5.5
329,55.8,10.8,28,,4.2,2.8,0.24,0.3,135.0,34.0,180.0,90.2,6.2
330,55.8,10.8,7,,4.2,2.8,0.24,0.3,135.0,34.0,180.0,82.4,5.8
331,55.8,10.8,28,,4.2,2.8,0.24,0.3,135.0,34.0,180.0,90.6,6.4
332,55.8,10.8,7,,9.69,2.74,0.24,0.3,135.0,34.0,180.0,83.1,5.9
333,55.8,10.8,28,,9.69,2.74,0.24,0.3,135.0,34.0,180.0,89.4,6.7
334,55.2,8.9,28,25.0,0.8,2.85,0.33,0.47,176.0,41.7,240.0,67.3,4.35
335,55.2,8.9,28,25.0,0.8,2.85,0.33,0.47,168.0,38.8,220.0,67.4,4.38
336,55.2,8.9,28,25.0,0.8,2.85,0.33,0.47,160.0,36.1,190.0,68.0,4.48
337,55.2,8.9,28,25.0,0.8,2.85,0.33,0.47,153.0,33.5,30.0,69.1,4.52
338,55.2,8.9,28,25.0,0.8,2.85,0.33,0.47,166.0,35.0,203.0,68.0,4.42
339,55.2,8.9,28,25.0,0.8,2.85,0.33,0.47,160.0,36.0,190.0,68.0,4.48
340,55.2,8.9,28,25.0,0.8,2.85,0.33,0.47,155.0,37.0,130.0,69.3,4.5
341,55.2,8.9,28,25.0,0.8,2.85,0.33,0.47,149.0,38.0,60.0,73.5,4.55
342,55.2,8.9,28,25.0,0.8,2.85,0.33,0.47,144.0,39.0,25.0,68.8,4.32
343,55.2,8.9,28,25.0,0.8,2.85,0.33,0.47,153.0,33.5,140.0,69.1,4.52
344,55.2,8.9,28,25.0,0.8,2.85,0.33,0.47,147.0,34.5,130.0,69.2,4.53
345,55.2,8.9,28,25.0,0.8,2.85,0.33,0.47,145.0,35.0,115.0,70.8,4.55
346,55.2,8.9,28,25.0,0.8,2.85,0.33,0.47,142.0,35.5,105.0,71.9,4.58
347,55.2,8.9,28,25.0,0.8,2.85,0.33,0.47,139.0,36.0,85.0,70.3,4.43
348,55.2,8.9,28,25.0,0.8,2.85,0.45,0.47,173.0,38.0,260.0,46.3,3.25
349,55.2,8.9,28,25.0,0.8,2.85,0.4,0.47,164.0,38.0,240.0,55.0,3.56
350,55.2,8.9,28,25.0,0.8,2.85,0.35,0.47,154.0,38.0,160.0,66.5,3.85
351,55.2,8.9,28,25.0,0.8,2.85,0.33,0.47,149.0,38.0,60.0,73.5,4.55
352,55.2,8.9,28,25.0,0.8,2.85,0.32,0.47,147.0,38.0,40.0,74.3,4.6
353,55.2,8.9,28,25.0,0.8,2.85,0.3,0.47,142.0,38.0,80.0,82.5,4.65
354,55.2,8.9,28,25.0,0.8,2.85,0.25,0.47,128.0,38.0,30.0,70.8,4.28
355,55.2,8.9,28,25.0,0.8,2.85,0.3,0.43,120.0,38.0,50.0,78.0,4.35
356,55.2,8.9,28,25.0,0.8,2.85,0.3,0.43,142.0,38.0,50.0,82.5,4.65
357,55.2,8.9,28,25.0,0.8,2.85,0.3,0.43,163.0,38.0,50.0,76.5,4.25
358,55.2,8.9,28,25.0,0.8,2.85,0.3,0.43,184.0,38.0,50.0,76.0,4.19
359,55.2,8.9,28,25.0,0.8,2.85,0.3,0.43,206.0,38.0,50.0,74.2,4.14
360,55.2,8.9,28,25.0,0.8,2.85,0.3,0.43,248.0,38.0,50.0,74.0,4.13
361,55.2,8.9,28,25.0,0.8,2.85,0.3,0.43,291.0,38.0,50.0,74.0,4.12
362,,,28,20.0,,3.0,0.44,0.51,205.0,39.0,195.0,52.03,3.3
363,,,28,20.0,,3.0,0.39,0.47,205.0,38.0,195.0,60.14,3.7
364,,,28,20.0,,3.0,0.33,0.41,170.0,38.0,225.0,80.37,4.4
365,,,28,20.0,,3.0,0.26,0.4,175.0,37.0,230.0,89.24,4.6
366,52.6,9.4,7,25.0,0.0,3.1,0.55,0.55,180.0,42.0,120.0,24.3,1.28
367,52.6,9.4,28,25.0,0.0,3.1,0.55,0.55,180.0,42.0,120.0,34.6,1.68
368,52.6,9.4,7,25.0,3.0,3.1,0.55,0.55,180.0,42.0,140.0,24.8,1.34
369,52.6,9.4,28,25.0,3.0,3.1,0.55,0.55,180.0,42.0,140.0,34.9,1.8
370,52.6,9.4,7,25.0,5.0,3.1,0.55,0.55,180.0,42.0,150.0,25.9,1.34
371,52.6,9.4,28,25.0,5.0,3.1,0.55,0.55,180.0,42.0,150.0,35.9,1.82
372,52.6,9.4,7,25.0,7.0,3.1,0.55,0.55,180.0,42.0,175.0,25.5,1.48
373,52.6,9.4,28,25.0,7.0,3.1,0.55,0.55,180.0,42.0,175.0,36.4,1.96
374,52.6,9.4,7,25.0,10.0,3.1,0.55,0.55,180.0,42.0,180.0,26.3,1.64
375,52.6,9.4,28,25.0,10.0,3.1,0.55,0.55,180.0,42.0,180.0,37.9,2.15
376,52.6,9.4,7,25.0,15.0,3.1,0.55,0.55,180.0,42.0,190.0,27.4,1.72
377,52.6,9.4,28,25.0,15.0,3.1,0.55,0.55,180.0,42.0,190.0,38.2,2.19
378,52.6,9.4,7,25.0,20.0,3.1,0.55,0.55,180.0,42.0,160.0,25.7,1.81
379,52.6,9.4,28,25.0,20.0,3.1,0.55,0.55,180.0,42.0,160.0,36.5,2.17
380,,,3,20.0,3.0,3.3,0.3,0.38,166.0,48.0,210.0,48.9,3.35
381,,,7,20.0,3.0,3.3,0.3,0.38,166.0,48.0,210.0,64.1,5.36
382,,,28,20.0,3.0,3.3,0.3,0.38,166.0,48.0,210.0,80.2,5.75
383,,,3,20.0,7.0,3.3,0.3,0.38,166.0,48.0,210.0,49.0,3.07
384,,,7,20.0,7.0,3.3,0.3,0.38,166.0,48.0,210.0,66.3,5.65
385,,,28,20.0,7.0,3.3,0.3,0.38,166.0,48.0,210.0,80.1,6.01
386,,,3,20.0,10.0,3.3,0.3,0.38,166.0,48.0,220.0,48.2,2.97
387,,,7,20.0,10.0,3.3,0.3,0.38,166.0,48.0,220.0,61.7,5.33
388,,,28,20.0,10.0,3.3,0.3,0.38,166.0,48.0,220.0,75.3,5.85
389,,,28,,,,0.44,0.44,,30.0,,51.2,3.78
390,,,28,,,,0.44,0.44,,30.0,,54.0,3.96
391,44.5,7.8,28,25.0,4.2,2.6,0.54,0.54,185.0,38.0,40.0,28.8,2.73
392,44.5,7.8,28,25.0,4.2,2.6,0.45,0.45,185.0,38.0,45.0,35.0,3.31
393,44.5,7.8,28,25.0,4.2,2.6,0.4,0.4,190.0,38.0,45.0,39.8,3.72
394,,,28,80.0,18.0,2.8,0.46,0.46,135.0,27.0,,28.9,1.98
395,,,28,80.0,16.8,2.8,0.46,0.46,160.0,32.0,,33.3,2.42
396,,,28,80.0,21.7,2.8,0.46,0.46,160.0,32.0,,30.2,2.26
397,,,28,80.0,21.8,2.8,0.48,0.48,150.0,34.0,,30.0,2.15
398,,,28,80.0,21.8,2.8,0.48,0.48,130.0,28.0,,28.0,1.98
399,,,28,80.0,16.7,2.8,0.48,0.48,130.0,28.0,,25.3,1.89
400,,,28,80.0,18.0,2.8,0.53,0.53,130.0,29.0,,24.9,1.84
401,,,28,80.0,18.2,2.8,0.53,0.53,130.0,29.0,,22.5,1.7
402,,,28,80.0,17.4,2.8,0.53,0.53,130.0,29.0,,26.7,1.84
403,,,28,80.0,17.5,2.8,0.58,0.58,134.0,29.0,,24.4,1.7
404,,,28,80.0,16.8,2.8,0.58,0.58,134.0,29.0,,29.6,2.25
405,,,28,80.0,20.0,2.8,0.58,0.58,134.0,29.0,,21.3,1.7
406,,,28,80.0,18.2,2.8,0.63,0.63,133.0,30.0,,20.0,1.59
407,,,28,80.0,18.2,2.8,0.63,0.63,138.0,30.0,,19.0,1.36
408,,,28,80.0,20.0,2.8,0.63,0.63,133.0,31.0,,18.2,1.42
409,,,28,20.0,12.1,3.1,0.5,0.5,,,72.0,26.5,2.69
410,,,28,20.0,15.0,3.1,0.5,0.5,,,57.0,31.8,2.91
411,,,28,20.0,18.0,3.1,0.5,0.5,,,60.0,30.9,2.83
412,,,28,20.0,21.0,3.1,0.5,0.5,,,58.0,30.8,2.69
413,,,28,,13.8,2.6,0.5,0.5,,,60.0,22.3,2.26
414,,,28,,20.8,2.9,0.5,0.5,,,60.0,28.4,2.42
415,,,28,,25.9,3.3,0.5,0.5,,,58.0,26.5,2.36
416,,,28,40.0,5.0,,0.5,0.5,187.0,,,27.5,2.31
417,,,28,40.0,10.0,,0.5,0.5,188.0,,,28.1,2.42
418,,,28,40.0,15.0,,0.5,0.5,189.0,,,29.2,2.39
419,,,28,40.0,20.0,,0.5,0.5,190.0,,,28.7,2.54
420,,,28,40.0,25.0,,0.5,0.5,191.0,,,29.8,2.36
421,,,28,40.0,5.0,,0.6,0.6,183.0,,,24.2,2.0
422,,,28,40.0,10.0,,0.6,0.6,184.0,,,25.1,2.04
423,,,28,40.0,15.0,,0.6,0.6,185.0,,,26.6,2.31
424,,,28,40.0,20.0,,0.6,0.6,186.0,,,23.5,2.17
425,,,28,40.0,25.0,,0.6,0.6,187.0,,,23.1,1.99
426,,,28,80.0,5.0,,0.5,0.5,150.0,,,29.0,2.5
427,,,28,80.0,10.0,,0.5,0.5,151.0,,,31.2,2.64
428,,,28,80.0,15.0,,0.5,0.5,152.0,,,34.8,2.76
429,,,28,80.0,20.0,,0.5,0.5,153.0,,,33.5,2.57
430,,,28,80.0,25.0,,0.5,0.5,154.0,,,32.9,2.49
431,,,28,80.0,5.0,,0.7,0.7,151.0,,,21.6,1.87
432,,,28,80.0,10.0,,0.7,0.7,151.0,,,23.3,2.09
433,,,28,80.0,15.0,,0.7,0.7,152.0,,,26.3,2.09
434,,,28,80.0,20.0,,0.7,0.7,152.0,,,23.5,1.74
435,,,28,80.0,25.0,,0.7,0.7,154.0,,,22.5,1.7
436,44.8,7.9,7,31.5,5.0,2.6,0.5,0.5,180.0,42.0,200.0,25.9,1.38
437,44.8,7.9,28,31.5,5.0,2.6,0.5,0.5,180.0,42.0,200.0,35.9,1.82
438,44.8,7.9,7,31.5,10.0,2.6,0.5,0.5,180.0,42.0,200.0,25.5,1.64
439,44.8,7.9,28,31.5,10.0,2.6,0.5,0.5,180.0,42.0,200.0,35.9,2.15
440,44.8,7.9,7,31.5,15.0,2.6,0.5,0.5,180.0,42.0,210.0,25.4,1.72
441,44.8,7.9,28,31.5,15.0,2.6,0.5,0.5,180.0,42.0,210.0,35.9,2.19
442,44.8,7.9,7,31.5,20.0,2.6,0.5,0.5,180.0,42.0,220.0,24.7,2.01
443,44.8,7.9,28,31.5,20.0,2.6,0.5,0.5,180.0,42.0,220.0,35.5,2.17
444,47.6,8.5,7,40.0,6.0,3.2,0.55,0.55,175.0,42.0,100.0,27.3,1.6
445,47.6,8.5,7,40.0,12.0,3.2,0.55,0.55,175.0,41.0,85.0,30.1,1.7
446,47.6,8.5,7,40.0,18.0,3.2,0.55,0.55,175.0,40.0,75.0,31.7,2.0
447,47.6,8.5,28,40.0,6.0,3.2,0.55,0.55,175.0,42.0,100.0,33.3,2.1
448,47.6,8.5,28,40.0,12.0,3.2,0.55,0.55,175.0,41.0,85.0,36.3,2.4
449,47.6,8.5,28,40.0,18.0,3.2,0.55,0.55,175.0,40.0,75.0,38.0,2.6
450,51.7,9.1,28,25.0,6.0,3.2,0.38,0.38,179.0,35.0,180.0,61.3,4.25
451,51.7,9.1,28,25.0,9.0,3.2,0.38,0.38,179.0,35.0,180.0,62.7,4.34
452,51.7,9.1,28,25.0,12.0,3.2,0.38,0.38,179.0,35.0,180.0,60.8,4.01
453,51.7,9.1,28,25.0,12.0,3.2,0.38,0.38,179.0,35.0,140.0,60.6,4.29
454,51.7,9.1,28,25.0,12.0,3.2,0.38,0.38,179.0,35.0,155.0,62.4,4.17
455,60.8,8.5,28,80.0,,2.67,0.38,0.38,114.0,26.0,,39.8,2.71
456,60.8,8.5,28,80.0,,2.67,0.38,0.38,114.0,26.0,,34.3,2.92
457,47.7,7.9,28,80.0,,2.67,0.62,0.77,120.0,30.0,,17.9,1.22
458,47.7,7.9,28,80.0,,2.67,0.62,0.77,120.0,30.0,,18.6,1.8
459,47.7,7.9,28,80.0,,2.67,0.62,0.77,120.0,30.0,,20.6,1.94
460,47.7,7.9,28,80.0,,2.67,0.62,0.77,120.0,30.0,,18.2,1.8
461,47.7,7.9,28,80.0,,2.67,0.62,0.77,120.0,30.0,,23.7,1.83
462,,,28,80.0,12.0,2.88,0.5,0.625,110.0,26.0,61.0,32.5,2.88
463,,,28,80.0,16.0,2.73,0.5,0.625,110.0,26.0,51.0,35.8,2.73
464,,,28,80.0,16.0,2.73,0.5,0.625,110.0,28.0,52.0,30.2,2.4
465,,,28,80.0,21.0,2.54,0.4,0.5,110.0,24.0,56.0,39.6,2.74
466,,,28,80.0,21.0,2.54,0.5,0.625,110.0,26.0,58.0,30.7,2.47
467,,,28,80.0,21.0,2.54,0.6,0.75,110.0,28.0,53.0,36.5,2.14
468,,,7,,0.0,,0.4,0.4,190.0,30.0,5.0,37.2,2.45
469,,,7,,10.0,,0.4,0.4,190.0,30.0,5.0,29.6,2.69
470,,,7,,20.0,,0.4,0.4,190.0,30.0,5.0,38.4,2.4
471,,,7,,30.0,,0.4,0.4,190.0,30.0,5.0,41.1,2.78
472,,,7,,40.0,,0.4,0.4,190.0,30.0,5.0,42.5,3.07
473,,,7,,0.0,,0.7,0.7,190.0,34.0,5.0,16.4,1.13
474,,,7,,10.0,,0.7,0.7,190.0,34.0,5.0,17.9,1.36
475,,,7,,20.0,,0.7,0.7,190.0,34.0,5.0,16.3,1.08
476,,,7,,30.0,,0.7,0.7,190.0,34.0,5.0,19.7,1.47
477,,,7,,40.0,,0.7,0.7,190.0,34.0,5.0,21.0,1.38
478,,,7,,0.0,,1.0,1.0,190.0,42.0,5.0,7.9,0.62
479,,,7,,10.0,,1.0,1.0,190.0,42.0,5.0,9.5,0.71
480,,,7,,20.0,,1.0,1.0,190.0,42.0,5.0,10.5,0.8
481,,,7,,30.0,,1.0,1.0,190.0,42.0,5.0,12.4,0.99
482,,,7,,40.0,,1.0,1.0,190.0,42.0,5.0,13.1,1.11
483,,,28,,0.0,,0.4,0.4,190.0,30.0,5.0,46.4,2.88
484,,,28,,10.0,,0.4,0.4,190.0,30.0,5.0,48.1,3.01
485,,,28,,20.0,,0.4,0.4,190.0,30.0,5.0,50.5,3.23
486,,,28,,30.0,,0.4,0.4,190.0,30.0,5.0,50.1,2.9
487,,,28,,40.0,,0.4,0.4,190.0,30.0,5.0,51.6,3.15
488,,,28,,0.0,,0.7,0.7,190.0,34.0,5.0,23.8,1.82
489,,,28,,10.0,,0.7,0.7,190.0,34.0,5.0,24.4,1.9
490,,,28,,20.0,,0.7,0.7,190.0,34.0,5.0,27.7,1.62
491,,,28,,30.0,,0.7,0.7,190.0,34.0,5.0,25.7,1.86
492,,,28,,40.0,,0.7,0.7,190.0,34.0,5.0,26.7,1.58
493,,,28,,0.0,,1.0,1.0,190.0,42.0,5.0,14.1,0.98
494,,,28,,10.0,,1.0,1.0,190.0,42.0,5.0,13.0,1.18
495,,,28,,20.0,,1.0,1.0,190.0,42.0,5.0,14.2,1.23
496,,,28,,30.0,,1.0,1.0,190.0,42.0,5.0,17.2,1.33
497,,,28,,40.0,,1.0,1.0,190.0,42.0,5.0,17.3,1.39
498,,,7,80.0,15.0,2.8,0.5,0.66,104.0,30.0,44.0,20.4,1.61
499,,,7,80.0,15.0,2.8,0.5,0.66,108.0,30.0,49.0,19.9,1.57
500,,,7,80.0,15.0,2.8,0.5,0.66,110.0,30.0,36.0,19.2,1.53
501,,,7,80.0,15.0,2.8,0.5,0.66,114.0,30.0,45.0,18.4,1.5
502,,,7,80.0,15.0,2.8,0.5,0.66,115.0,30.0,40.0,18.4,1.5
503,,,28,80.0,15.0,2.8,0.5,0.66,104.0,30.0,44.0,29.7,3.04
504,,,28,80.0,15.0,2.8,0.5,0.66,108.0,30.0,49.0,29.7,3.02
505,,,28,80.0,15.0,2.8,0.5,0.66,110.0,30.0,36.0,28.5,2.91
506,,,28,80.0,15.0,2.8,0.5,0.66,114.0,30.0,45.0,27.4,2.84
507,,,28,80.0,15.0,2.8,0.5,0.66,115.0,30.0,40.0,27.1,2.75
508,,,90,80.0,15.0,2.8,0.5,0.66,104.0,30.0,44.0,40.9,3.43
509,,,90,80.0,15.0,2.8,0.5,0.66,108.0,30.0,49.0,40.2,3.37
510,,,90,80.0,15.0,2.8,0.5,0.66,110.0,30.0,36.0,39.4,3.26
511,,,90,80.0,15.0,2.8,0.5,0.66,114.0,30.0,45.0,38.3,3.19
512,,,90,80.0,15.0,2.8,0.5,0.66,115.0,30.0,40.0,37.5,3.15
513,,,28,,24.0,2.7,0.57,0.57,192.0,35.0,86.0,21.8,2.41
514,,,28,,24.0,2.7,0.43,0.43,193.0,32.0,80.0,39.7,3.68
515,,,7,120.0,12.1,2.56,0.55,0.92,83.5,26.5,55.0,8.1,0.56
516,,,7,120.0,12.1,2.56,0.55,0.92,83.5,26.5,42.0,9.7,0.68
517,,,7,120.0,12.1,2.56,0.55,0.92,83.5,27.0,55.0,9.9,0.72
518,,,7,120.0,12.1,2.56,0.55,0.92,83.5,27.0,49.0,10.7,0.8
519,,,7,120.0,12.1,2.56,0.45,0.64,98.0,29.5,60.0,15.2,1.2
520,,,7,120.0,12.1,2.56,0.45,0.64,98.0,29.5,46.0,16.7,1.21
521,,,7,120.0,12.1,2.56,0.45,0.64,98.0,30.0,54.0,19.2,1.38
522,,,7,120.0,12.1,2.56,0.45,0.64,98.0,30.0,51.0,19.6,1.31
523,,,28,120.0,12.1,2.56,0.55,0.92,83.5,26.5,55.0,12.6,0.95
524,,,28,120.0,12.1,2.56,0.55,0.92,83.5,26.5,42.0,14.7,1.12
525,,,28,120.0,12.1,2.56,0.55,0.92,83.5,27.0,55.0,16.4,1.39
526,,,28,120.0,12.1,2.56,0.55,0.92,83.5,27.0,49.0,16.6,1.41
527,,,28,80.0,12.1,2.56,0.45,0.64,98.0,29.5,60.0,23.5,1.73
528,,,28,80.0,12.1,2.56,0.45,0.64,98.0,29.5,46.0,26.7,1.78
529,,,28,80.0,12.1,2.56,0.45,0.64,98.0,30.0,54.0,28.3,1.88
530,,,28,80.0,12.1,2.56,0.45,0.64,98.0,30.0,51.0,31.1,2.08
531,,,90,120.0,12.1,2.56,0.55,0.92,83.5,26.5,55.0,21.1,1.51
532,,,90,120.0,12.1,2.56,0.55,0.92,83.5,26.5,42.0,24.2,1.65
533,,,90,120.0,12.1,2.56,0.55,0.92,83.5,27.0,55.0,26.8,1.76
534,,,90,120.0,12.1,2.56,0.55,0.92,83.5,27.0,49.0,26.1,2.11
535,,,90,120.0,12.1,2.56,0.45,0.64,98.0,29.5,60.0,36.7,2.45
536,,,90,120.0,12.1,2.56,0.45,0.64,98.0,29.5,46.0,37.0,2.44
537,,,90,120.0,12.1,2.56,0.45,0.64,98.0,30.0,54.0,40.4,2.65
538,,,90,120.0,12.1,2.56,0.45,0.64,98.0,30.0,51.0,41.1,2.9
539,,,7,,11.2,2.44,0.45,0.64,87.0,27.0,57.0,18.6,1.43
540,,,7,,11.2,2.44,0.45,0.64,87.0,26.0,47.0,12.9,1.03
541,,,7,,11.2,2.44,0.5,0.83,87.0,28.0,52.0,13.3,0.98
542,,,7,,11.2,2.44,0.5,0.83,87.0,27.0,42.0,9.6,0.71
543,,,7,40.0,13.0,2.68,0.5,0.83,89.0,36.0,5.0,15.5,0.79
544,,,7,40.0,13.0,2.68,0.5,1.0,88.0,36.0,5.0,11.9,0.72
545,,,7,40.0,13.0,2.68,0.5,1.11,88.0,36.0,5.0,9.3,0.61
546,,,7,40.0,11.2,2.44,0.5,0.83,103.0,36.0,5.0,11.6,0.9
547,,,7,40.0,11.2,2.44,0.5,1.0,102.0,36.0,5.0,9.2,0.72
548,,,7,40.0,11.2,2.44,0.5,1.11,102.0,36.0,5.0,7.8,0.65
549,,,28,,11.2,2.44,0.45,0.64,87.0,27.0,57.0,29.8,2.23
550,,,28,,11.2,2.44,0.45,0.64,87.0,26.0,47.0,22.3,1.56
551,,,28,,11.2,2.44,0.5,0.83,87.0,28.0,52.0,23.5,1.73
552,,,28,,11.2,2.44,0.5,0.83,87.0,27.0,42.0,18.0,1.46
553,,,28,40.0,13.0,2.68,0.5,0.83,89.0,36.0,5.0,23.6,2.04
554,,,28,40.0,13.0,2.68,0.5,1.0,88.0,36.0,5.0,21.5,1.8
555,,,28,40.0,13.0,2.68,0.5,1.11,88.0,36.0,5.0,19.9,1.62
556,,,28,40.0,11.2,2.44,0.5,0.83,103.0,36.0,5.0,21.6,1.96
557,,,28,40.0,11.2,2.44,0.5,1.0,102.0,36.0,5.0,20.0,1.69
558,,,28,40.0,11.2,2.44,0.5,1.11,102.0,36.0,5.0,18.5,1.53
559,,,90,40.0,13.0,2.68,0.5,0.83,89.0,36.0,5.0,32.8,2.2
560,,,90,40.0,13.0,2.68,0.5,1.0,88.0,36.0,5.0,28.0,2.12
561,,,90,40.0,13.0,2.68,0.5,1.11,88.0,36.0,5.0,25.5,2.1
562,,,90,40.0,11.2,2.44,0.5,0.83,103.0,36.0,5.0,29.8,2.52
563,,,90,40.0,11.2,2.44,0.5,1.0,102.0,36.0,5.0,27.8,2.18
564,,,90,40.0,11.2,2.44,0.5,1.11,102.0,36.0,5.0,26.9,1.95
565,,,28,80.0,10.8,2.42,0.45,0.64,98.0,30.0,33.0,28.8,1.71
566,,,28,80.0,12.4,2.57,0.45,0.64,95.0,31.0,40.0,30.6,1.99
567,,,28,120.0,10.8,2.42,0.55,0.92,88.0,27.0,42.0,14.7,1.1
568,,,28,120.0,12.4,2.57,0.55,0.92,85.0,28.0,45.0,20.2,1.43
569,,,90,80.0,10.8,2.42,0.45,0.64,98.0,30.0,33.0,41.3,2.33
570,,,90,80.0,12.4,2.57,0.45,0.64,95.0,31.0,40.0,44.0,3.0
571,,,90,120.0,10.8,2.42,0.55,0.92,88.0,27.0,42.0,24.8,1.8
572,,,90,120.0,12.4,2.57,0.55,0.92,85.0,28.0,45.0,30.9,2.26
573,62.4,8.4,7,40.0,11.9,2.86,0.5,0.83,88.0,,5.0,15.5,0.79
574,62.4,8.4,7,40.0,11.9,2.86,0.5,1.0,88.0,,5.0,11.9,0.72
575,62.4,8.4,7,40.0,11.9,2.86,0.5,1.11,88.0,,5.0,9.3,0.61
576,62.4,8.4,7,40.0,11.9,2.86,0.5,1.11,88.0,,5.0,7.5,0.6
577,62.4,8.4,7,40.0,11.9,2.86,0.5,1.25,88.0,,5.0,7.8,0.47
578,62.4,8.4,7,40.0,11.9,2.86,0.5,1.43,88.0,,5.0,5.8,0.46
579,62.4,8.4,7,40.0,6.1,2.92,0.5,0.83,102.0,,5.0,11.6,0.9
580,62.4,8.4,7,40.0,6.1,2.92,0.5,1.0,102.0,,5.0,9.2,0.72
581,62.4,8.4,7,40.0,6.1,2.92,0.5,1.11,102.0,,5.0,7.8,0.65
582,62.4,8.4,7,60.0,11.9,2.86,0.5,0.83,75.0,,5.0,14.0,1.18
583,62.4,8.4,7,60.0,11.9,2.86,0.5,1.0,75.0,,5.0,12.5,0.84
584,62.4,8.4,7,60.0,11.9,2.86,0.5,1.11,75.0,,5.0,9.2,0.62
585,62.4,8.4,7,60.0,11.9,2.86,0.5,1.25,75.0,,5.0,8.3,0.57
586,62.4,8.4,7,60.0,11.9,2.86,0.5,1.43,75.0,,5.0,6.9,0.56
587,62.4,8.4,7,80.0,11.9,2.86,0.5,0.83,71.0,,5.0,15.2,0.96
588,62.4,8.4,7,80.0,11.9,2.86,0.5,1.0,71.0,,5.0,12.9,0.86
589,62.4,8.4,7,80.0,11.9,2.86,0.5,1.11,71.0,,5.0,10.3,0.65
590,62.4,8.4,7,80.0,11.9,2.86,0.5,1.11,71.0,,5.0,9.0,0.64
591,62.4,8.4,7,80.0,11.9,2.86,0.5,1.25,71.0,,5.0,7.4,0.52
592,62.4,8.4,7,80.0,11.9,2.86,0.5,1.43,71.0,,5.0,4.8,0.35
593,62.4,8.4,7,80.0,6.1,2.92,0.5,0.83,82.0,,5.0,12.4,0.96
594,62.4,8.4,7,80.0,6.1,2.92,0.5,1.0,82.0,,5.0,9.2,0.72
595,62.4,8.4,7,80.0,6.1,2.92,0.5,1.11,82.0,,5.0,6.8,0.55
596,62.4,8.4,7,80.0,6.1,2.92,0.5,1.25,82.0,,5.0,6.5,0.54
597,62.4,8.4,7,80.0,6.1,2.92,0.5,1.43,82.0,,5.0,6.8,0.54
598,62.4,8.4,28,40.0,11.9,2.86,0.5,0.83,88.0,,5.0,23.6,2.04
599,62.4,8.4,28,40.0,11.9,2.86,0.5,1.0,88.0,,5.0,21.5,1.8
600,62.4,8.4,28,40.0,11.9,2.86,0.5,1.11,88.0,,5.0,19.9,1.62
601,62.4,8.4,28,40.0,11.9,2.86,0.5,1.11,88.0,,5.0,13.2,1.13
602,62.4,8.4,28,40.0,11.9,2.86,0.5,1.25,88.0,,5.0,15.9,1.4
603,62.4,8.4,28,40.0,11.9,2.86,0.5,1.43,88.0,,5.0,11.3,1.08
604,62.4,8.4,28,40.0,6.1,2.92,0.5,0.83,102.0,,5.0,21.6,1.96
605,62.4,8.4,28,40.0,6.1,2.92,0.5,1.0,102.0,,5.0,20.0,1.69
606,62.4,8.4,28,40.0,6.1,2.92,0.5,1.11,102.0,,5.0,18.5,1.53
607,62.4,8.4,28,60.0,11.9,2.86,0.5,0.83,75.0,,5.0,24.5,2.18
608,62.4,8.4,28,60.0,11.9,2.86,0.5,1.0,75.0,,5.0,21.4,1.63
609,62.4,8.4,28,60.0,11.9,2.86,0.5,1.11,75.0,,5.0,19.6,1.26
610,62.4,8.4,28,60.0,11.9,2.86,0.5,1.25,75.0,,5.0,16.9,1.09
611,62.4,8.4,28,60.0,11.9,2.86,0.5,1.43,75.0,,5.0,13.2,1.02
612,62.4,8.4,28,80.0,11.9,2.86,0.5,0.83,71.0,,5.0,24.1,2.1
613,62.4,8.4,28,80.0,11.9,2.86,0.5,1.0,71.0,,5.0,21.5,1.8
614,62.4,8.4,28,80.0,11.9,2.86,0.5,1.11,71.0,,5.0,20.1,1.6
615,62.4,8.4,28,80.0,11.9,2.86,0.5,1.11,71.0,,5.0,16.2,1.46
616,62.4,8.4,28,80.0,11.9,2.86,0.5,1.25,71.0,,5.0,14.9,1.45
617,62.4,8.4,28,80.0,11.9,2.86,0.5,1.43,71.0,,5.0,10.1,1.08
618,62.4,8.4,28,80.0,6.1,2.92,0.5,0.83,82.0,,5.0,21.8,1.92
619,62.4,8.4,28,80.0,6.1,2.92,0.5,1.0,82.0,,5.0,18.9,1.42
620,62.4,8.4,28,80.0,6.1,2.92,0.5,1.11,82.0,,5.0,14.0,1.06
621,62.4,8.4,28,80.0,6.1,2.92,0.5,1.25,82.0,,5.0,13.5,1.11
622,62.4,8.4,28,80.0,6.1,2.92,0.5,1.43,82.0,,5.0,12.9,1.16
623,62.4,8.4,90,40.0,11.9,2.86,0.5,0.83,88.0,,5.0,32.8,2.2
624,62.4,8.4,90,40.0,11.9,2.86,0.5,1.0,88.0,,5.0,28.0,2.12
625,62.4,8.4,90,40.0,11.9,2.86,0.5,1.11,88.0,,5.0,25.5,2.1
626,62.4,8.4,90,40.0,11.9,2.86,0.5,1.11,88.0,,5.0,24.4,2.09
627,62.4,8.4,90,40.0,11.9,2.86,0.5,1.25,88.0,,5.0,22.9,2.05
628,62.4,8.4,90,40.0,11.9,2.86,0.5,1.43,88.0,,5.0,20.8,1.99
629,62.4,8.4,90,40.0,6.1,2.92,0.5,0.83,102.0,,5.0,29.8,2.52
630,62.4,8.4,90,40.0,6.1,2.92,0.5,1.0,102.0,,5.0,27.8,2.18
631,62.4,8.4,90,40.0,6.1,2.92,0.5,1.11,102.0,,5.0,26.9,1.95
632,62.4,8.4,90,60.0,11.9,2.86,0.5,0.83,75.0,,5.0,34.6,2.88
633,62.4,8.4,90,60.0,11.9,2.86,0.5,1.0,75.0,,5.0,27.9,2.29
634,62.4,8.4,90,60.0,11.9,2.86,0.5,1.11,75.0,,5.0,24.3,2.08
635,62.4,8.4,90,60.0,11.9,2.86,0.5,1.25,75.0,,5.0,23.5,1.93
636,62.4,8.4,90,60.0,11.9,2.86,0.5,1.43,75.0,,5.0,22.5,1.8
637,62.4,8.4,90,80.0,11.9,2.86,0.5,0.83,71.0,,5.0,33.4,2.45
638,62.4,8.4,90,80.0,11.9,2.86,0.5,1.0,71.0,,5.0,30.1,2.2
639,62.4,8.4,90,80.0,11.9,2.86,0.5,1.11,71.0,,5.0,29.1,2.13
640,62.4,8.4,90,80.0,11.9,2.86,0.5,1.11,71.0,,5.0,21.5,1.9
641,62.4,8.4,90,80.0,11.9,2.86,0.5,1.25,71.0,,5.0,20.2,2.05
642,62.4,8.4,90,80.0,11.9,2.86,0.5,1.43,71.0,,5.0,17.5,1.87
643,62.4,8.4,90,80.0,6.1,2.92,0.5,0.83,82.0,,5.0,30.2,2.49
644,62.4,8.4,90,80.0,6.1,2.92,0.5,1.0,82.0,,5.0,28.2,2.21
645,62.4,8.4,90,80.0,6.1,2.92,0.5,1.11,82.0,,5.0,27.7,2.1
646,62.4,8.4,90,80.0,6.1,2.92,0.5,1.25,82.0,,5.0,27.0,2.01
647,62.4,8.4,90,80.0,6.1,2.92,0.5,1.43,82.0,,5.0,26.5,2.0
648,,,7,80.0,6.0,2.68,0.5,0.67,104.0,30.0,50.0,15.2,1.44
649,,,7,80.0,9.0,2.68,0.5,0.67,112.0,30.0,48.0,15.2,1.56
650,,,7,80.0,12.0,2.68,0.5,0.67,114.0,30.0,50.0,16.4,1.59
651,,,7,80.0,15.0,2.68,0.5,0.67,115.0,30.0,40.0,18.5,1.5
652,,,7,80.0,18.0,2.68,0.5,0.67,117.0,30.0,44.0,16.2,1.62
653,,,7,80.0,15.0,2.68,0.5,0.67,110.0,30.0,36.0,18.2,1.7
654,,,7,80.0,15.0,2.68,0.5,0.67,108.0,30.0,49.0,15.8,1.58
655,,,7,80.0,9.0,2.68,0.5,,111.0,30.0,41.0,16.6,1.54
656,,,7,80.0,6.0,2.68,0.5,,112.0,30.0,50.0,17.2,1.58
657,,,28,80.0,6.0,2.68,0.5,0.67,104.0,30.0,50.0,22.6,2.49
658,,,28,80.0,9.0,2.68,0.5,0.67,112.0,30.0,48.0,26.2,2.33
659,,,28,80.0,12.0,2.68,0.5,0.67,114.0,30.0,50.0,24.2,2.36
660,,,28,80.0,15.0,2.68,0.5,0.67,115.0,30.0,40.0,27.3,2.75
661,,,28,80.0,18.0,2.68,0.5,0.67,117.0,30.0,44.0,26.7,2.76
662,,,28,80.0,15.0,2.68,0.5,0.67,110.0,30.0,36.0,26.5,2.48
663,,,28,80.0,15.0,2.68,0.5,0.67,108.0,30.0,49.0,23.1,2.27
664,,,28,80.0,9.0,2.68,0.5,,111.0,30.0,41.0,28.2,2.97
665,,,28,80.0,6.0,2.68,0.5,,112.0,30.0,50.0,30.2,2.9
666,,,90,80.0,6.0,2.68,0.5,0.67,104.0,30.0,50.0,29.9,3.54
667,,,90,80.0,9.0,2.68,0.5,0.67,112.0,30.0,48.0,32.0,3.42
668,,,90,80.0,12.0,2.68,0.5,0.67,114.0,30.0,50.0,33.0,3.18
669,,,90,80.0,15.0,2.68,0.5,0.67,115.0,30.0,40.0,37.9,3.15
670,,,90,80.0,18.0,2.68,0.5,0.67,117.0,30.0,44.0,37.1,3.21
671,,,90,80.0,15.0,2.68,0.5,0.67,110.0,30.0,36.0,34.8,3.18
672,,,90,80.0,15.0,2.68,0.5,0.67,108.0,30.0,49.0,34.2,2.69
673,,,90,80.0,9.0,2.68,0.5,,111.0,30.0,41.0,32.6,3.14
674,,,90,80.0,6.0,2.68,0.5,,112.0,30.0,50.0,39.6,3.11
675,52.9,8.4,7,80.0,15.0,2.8,0.5,0.67,104.0,30.0,44.0,20.4,1.61
676,52.9,8.4,7,80.0,15.0,2.8,0.5,0.67,108.0,30.0,49.0,19.9,1.57
677,52.9,8.4,7,80.0,15.0,2.8,0.5,0.67,110.0,30.0,36.0,19.2,1.53
678,52.9,8.4,7,80.0,15.0,2.8,0.5,0.67,114.0,30.0,45.0,18.4,1.5
679,52.9,8.4,7,80.0,15.0,2.8,0.5,0.67,115.0,30.0,40.0,18.4,1.5
680,52.9,8.4,28,80.0,15.0,2.8,0.5,0.67,104.0,30.0,44.0,29.7,3.04
681,52.9,8.4,28,80.0,15.0,2.8,0.5,0.67,108.0,30.0,49.0,29.7,3.02
682,52.9,8.4,28,80.0,15.0,2.8,0.5,0.67,110.0,30.0,36.0,28.5,2.91
683,52.9,8.4,28,80.0,15.0,2.8,0.5,0.67,114.0,30.0,45.0,27.4,2.84
684,52.9,8.4,28,80.0,15.0,2.8,0.5,0.67,115.0,30.0,40.0,27.1,2.75
685,52.9,8.4,90,80.0,15.0,2.8,0.5,0.67,104.0,30.0,44.0,40.9,3.43
686,52.9,8.4,90,80.0,15.0,2.8,0.5,0.67,108.0,30.0,49.0,40.2,3.37
687,52.9,8.4,90,80.0,15.0,2.8,0.5,0.67,110.0,30.0,36.0,39.4,3.26
688,52.9,8.4,90,80.0,15.0,2.8,0.5,0.67,114.0,30.0,45.0,38.3,3.19
689,52.9,8.4,90,80.0,15.0,2.8,0.5,0.67,115.0,30.0,40.0,37.5,3.15
690,39.42,,7,12.0,19.2,,0.37,0.65,178.75,53.0,,26.56,1.92
691,39.42,,28,12.0,19.2,,0.37,0.65,178.75,53.0,,33.12,2.34
692,39.42,,90,12.0,19.2,,0.37,0.65,178.75,53.0,,39.94,3.32
693,39.42,,7,12.0,19.2,,0.34,0.55,178.75,53.0,,32.17,2.67
694,39.42,,28,12.0,19.2,,0.34,0.55,178.75,53.0,,40.49,3.03
695,39.42,,90,12.0,19.2,,0.34,0.55,178.75,53.0,,49.7,3.68
696,48.07,,7,12.0,19.2,,0.34,0.55,178.75,53.0,,43.15,2.9
697,48.07,,28,12.0,19.2,,0.34,0.55,178.75,53.0,,49.26,3.12
698,48.07,,90,12.0,19.2,,0.34,0.55,178.75,53.0,,63.7,4.1
699,48.07,,7,12.0,19.2,,0.31,0.45,180.0,53.0,,55.85,3.85
700,48.07,,28,12.0,19.2,,0.31,0.45,180.0,53.0,,63.72,3.86
701,48.07,,90,12.0,19.2,,0.31,0.45,180.0,53.0,,79.17,4.19
702,39.42,,7,12.0,19.2,,0.4,0.65,178.75,54.0,145.0,28.0,2.22
703,39.42,,28,12.0,19.2,,0.4,0.65,178.75,54.0,145.0,35.47,3.34
704,39.42,,90,12.0,19.2,,0.4,0.65,178.75,54.0,145.0,44.25,3.47
705,39.42,,7,12.0,19.2,,0.36,0.55,178.75,54.0,135.0,33.42,2.31
706,39.42,,28,12.0,19.2,,0.36,0.55,178.75,54.0,135.0,41.43,3.52
707,39.42,,90,12.0,19.2,,0.36,0.55,178.75,54.0,135.0,52.35,3.98
708,48.07,,7,12.0,19.2,,0.36,0.55,178.75,54.0,140.0,42.97,3.61
709,48.07,,28,12.0,19.2,,0.36,0.55,178.75,54.0,140.0,46.85,4.25
710,48.07,,90,12.0,19.2,,0.36,0.55,178.75,54.0,140.0,60.65,4.59
711,48.07,,7,12.0,19.2,,0.32,0.45,180.0,54.0,140.0,47.71,3.75
712,48.07,,28,12.0,19.2,,0.32,0.45,180.0,54.0,140.0,65.37,4.69
713,48.07,,90,12.0,19.2,,0.32,0.45,180.0,54.0,140.0,73.7,4.76